File: Testing PyBaMM/theo_cycle.csv
Timestamp,Connection,Uptime,Status,IO State,SoC [%],Pack Voltage [V],Pack Current [A],Max. Cell Voltage [mV],Min. Cell Voltage [mV],Max. Cell Temperature [C],Min. Cell Temperature [C],MCU AUX temperature sensor 1 [C],MCU AUX temperature sensor 2 [C],MCU AUX temperature sensor 3 [C],MCU AUX temperature sensor 4 [C],MCU AUX temperature sensor 5 [C],MCU AUX temperature sensor 6 [C],MCU AUX temperature sensor 7 [C],MCU AUX temperature sensor 8 [C],Dynamic Current IN limit [A],Dynamic Current OUT limit [A],Requested Charge Current [A],Charge complete? (latched) [],Remaining Battery Pack Capacity [As],Battery Pack Capacity [Ah],State of Health [%],Alarm Entry 1,Alarm Entry 2,Alarm Entry 3,Alarm Entry 4,Alarm Entry 5,Alarm Entry 6,Alarm Entry 7,Alarm Entry 8,CMU: 1 Cell: 1 (Pack 1) [mV],CMU: 1 Cell: 2 (Pack 2) [mV],CMU: 1 Cell: 3 (Pack 3) [mV],CMU: 1 Cell: 4 (Pack 4) [mV],CMU: 1 Cell: 5 (Pack 5) [mV],CMU: 1 Cell: 6 (Pack 6) [mV],CMU: 1 Cell: 7 (Pack 7) [mV],CMU: 1 Cell: 8 (Pack 8) [mV],CMU: 1 Cell: 9 (Pack 9) [mV],CMU: 1 Cell: 10 (Pack 10) [mV],CMU: 1 Cell: 11 (Pack 11) [mV],CMU: 1 Cell: 12 (Pack 12) [mV],CMU: 1 Cell: 13 (Pack 13) [mV],CMU: 1 Cell: 14 (Pack 14) [mV],CMU: 1 Cell: 15 (Pack 15) [mV],CMU: 1 Cell: 16 (Pack 16) [mV],CMU: 1 Cell: 17 (Pack 17) [mV],CMU: 1 Cell: 18 (Pack 18) [mV],CMU: 2 Cell: 1 (Pack 19) [mV],CMU: 2 Cell: 2 (Pack 20) [mV],CMU: 2 Cell: 3 (Pack 21) [mV],CMU: 2 Cell: 4 (Pack 22) [mV],CMU: 2 Cell: 5 (Pack 23) [mV],CMU: 2 Cell: 6 (Pack 24) [mV],CMU: 2 Cell: 7 (Pack 25) [mV],CMU: 2 Cell: 8 (Pack 26) [mV],CMU: 2 Cell: 9 (Pack 27) [mV],CMU: 2 Cell: 10 (Pack 28) [mV],CMU: 2 Cell: 11 (Pack 29) [mV],CMU: 2 Cell: 12 (Pack 30) [mV],CMU: 2 Cell: 13 (Pack 31) [mV],CMU: 2 Cell: 14 (Pack 32) [mV],CMU: 2 Cell: 15 (Pack 33) [mV],CMU: 2 Cell: 16 (Pack 34) [mV],CMU: 2 Cell: 17 (Pack 35) [mV],CMU: 2 Cell: 18 (Pack 36) [mV],CMU: 3 Cell: 1 (Pack 37) [mV],CMU: 3 Cell: 2 (Pack 38) [mV],CMU: 3 Cell: 3 (Pack 39) [mV],CMU: 3 Cell: 4 (Pack 40) [mV],CMU: 3 Cell: 5 (Pack 41) [mV],CMU: 3 Cell: 6 (Pack 42) [mV],CMU: 3 Cell: 7 (Pack 43) [mV],CMU: 3 Cell: 8 (Pack 44) [mV],CMU: 3 Cell: 9 (Pack 45) [mV],CMU: 3 Cell: 10 (Pack 46) [mV],CMU: 3 Cell: 11 (Pack 47) [mV],CMU: 3 Cell: 12 (Pack 48) [mV],CMU: 3 Cell: 13 (Pack 49) [mV],CMU: 3 Cell: 14 (Pack 50) [mV],CMU: 3 Cell: 15 (Pack 51) [mV],CMU: 3 Cell: 16 (Pack 52) [mV],CMU: 3 Cell: 17 (Pack 53) [mV],CMU: 3 Cell: 18 (Pack 54) [mV],Balancing Cells CMU #1,Balancing Cells CMU #2,Balancing Cells CMU #3,CMU: 1 Channel: 1 (Pack 1) [C],CMU: 1 Channel: 2 (Pack 2) [C],CMU: 1 Channel: 3 (Pack 3) [C],CMU: 1 Channel: 4 (Pack 4) [C],CMU: 1 Channel: 5 (Pack 5) [C],CMU: 1 Channel: 6 (Pack 6) [C],CMU: 1 Channel: 7 (Pack 7) [C],CMU: 1 Channel: 8 (Pack 8) [C],CMU: 1 Channel: 9 (Pack 9) [C],CMU: 1 Channel: 10 (Pack 10) [C],CMU: 1 Channel: 11 (Pack 11) [C],CMU: 1 Channel: 12 (Pack 12) [C],CMU: 1 PCB: 1 [C],CMU: 1 PCB: 2 [C],CMU: 2 Channel: 1 (Pack 13) [C],CMU: 2 Channel: 2 (Pack 14) [C],CMU: 2 Channel: 3 (Pack 15) [C],CMU: 2 Channel: 4 (Pack 16) [C],CMU: 2 Channel: 5 (Pack 17) [C],CMU: 2 Channel: 6 (Pack 18) [C],CMU: 2 Channel: 7 (Pack 19) [C],CMU: 2 Channel: 8 (Pack 20) [C],CMU: 2 Channel: 9 (Pack 21) [C],CMU: 2 Channel: 10 (Pack 22) [C],CMU: 2 Channel: 11 (Pack 23) [C],CMU: 2 Channel: 12 (Pack 24) [C],CMU: 2 PCB: 1 [C],CMU: 2 PCB: 2 [C],CMU: 3 Channel: 1 (Pack 25) [C],CMU: 3 Channel: 2 (Pack 26) [C],CMU: 3 Channel: 3 (Pack 27) [C],CMU: 3 Channel: 4 (Pack 28) [C],CMU: 3 Channel: 5 (Pack 29) [C],CMU: 3 Channel: 6 (Pack 30) [C],CMU: 3 Channel: 7 (Pack 31) [C],CMU: 3 Channel: 8 (Pack 32) [C],CMU: 3 Channel: 9 (Pack 33) [C],CMU: 3 Channel: 10 (Pack 34) [C],CMU: 3 Channel: 11 (Pack 35) [C],CMU: 3 Channel: 12 (Pack 36) [C],CMU: 3 PCB: 1 [C],CMU: 3 PCB: 2 [C],Custom Data # 1 (ID_47_FLAGS_FULLY_CHARGED) [],Custom Data # 2 (ID_48_FLAGS_FULLY_CHARGED_LATCHED) [],Custom Data # 3 () [],Custom Data # 4 () [],Custom Data # 5 () [],Custom Data # 6 () [],Custom Data # 7 () [],Custom Data # 8 () []
2021-10-13 13:30:23,GOOD,0d 0h 37m 45s,ACTIVE,514,6.85,150.1,0,4185.4,4160.7,24,23,OC,OC,OC,OC,OC,OC,OC,OC,410.4,624.6,0,FALSE,28533,115.6,100,,,,,,,,,4169.4,4164.9,4162.4,4161.6,4160.6,4162,4163.1,4163.4,4163.5,4161.8,4161.3,4168.3,N/A,N/A,N/A,N/A,N/A,N/A,4169.9,4165.2,4167.8,4166.9,4164,4163.6,4167.5,4167.5,4167,4164.7,4165.7,4172.5,N/A,N/A,N/A,N/A,N/A,N/A,4185.4,4177.5,4176.7,4174.9,4176.8,4177.7,4177.3,4178.3,4180.9,4174.6,4176,4183.8,N/A,N/A,N/A,N/A,N/A,N/A,0,0,0,23,23,23,23,OC,OC,OC,OC,OC,OC,OC,OC,26,25,24,23,24,24,OC,OC,OC,OC,OC,OC,OC,OC,26,25,24,23,24,24,OC,OC,OC,OC,OC,OC,OC,OC,24,24,0,0,,,,,,
2021-10-13 13:30:53,GOOD,0d 0h 38m 15s,ACTIVE,514,6.85,150.1,0,4185.2,4160.5,24,23,OC,OC,OC,OC,OC,OC,OC,OC,410.4,624.6,0,FALSE,28533,115.6,100,,,,,,,,,4169.5,4164.9,4162.5,4161.6,4160.5,4161.9,4163.1,4163.2,4163.3,4161.8,4161.4,4168.2,N/A,N/A,N/A,N/A,N/A,N/A,4170,4165.2,4167.8,4166.9,4164,4163.7,4167.4,4167.4,4166.9,4164.8,4165.7,4172.5,N/A,N/A,N/A,N/A,N/A,N/A,4185.3,4177.5,4176.6,4174.9,4176.7,4177.7,4177.3,4178.3,4180.8,4174.6,4175.9,4183.7,N/A,N/A,N/A,N/A,N/A,N/A,0,0,0,23,23,23,23,OC,OC,OC,OC,OC,OC,OC,OC,26,25,24,23,24,24,OC,OC,OC,OC,OC,OC,OC,OC,26,25,24,23,24,24,OC,OC,OC,OC,OC,OC,OC,OC,24,24,0,0,,,,,,
2021-10-13 13:31:23,GOOD,0d 0h 38m 44s,ACTIVE,514,6.85,150.1,0,4185.4,4160.6,24,23,OC,OC,OC,OC,OC,OC,OC,OC,410.4,624.6,0,FALSE,28533,115.6,100,,,,,,,,,4169.3,4164.7,4162.5,4161.6,4160.5,4161.8,4163,4163.1,4163.2,4161.7,4161.2,4168.1,N/A,N/A,N/A,N/A,N/A,N/A,4169.9,4165,4167.7,4166.8,4164,4163.6,4167.4,4167.4,4166.9,4164.6,4165.7,4172.4,N/A,N/A,N/A,N/A,N/A,N/A,4185.3,4177.4,4176.6,4174.9,4176.8,4177.6,4177,4178.2,4180.7,4174.5,4175.7,4183.5,N/A,N/A,N/A,N/A,N/A,N/A,0,0,0,23,23,23,23,OC,OC,OC,OC,OC,OC,OC,OC,26,25,24,23,24,24,OC,OC,OC,OC,OC,OC,OC,OC,26,25,24,23,24,24,OC,OC,OC,OC,OC,OC,OC,OC,24,24,0,0,,,,,,
2021-10-13 13:31:53,GOOD,0d 0h 39m 15s,ACTIVE,514,6.52,147.9,-91,4123.4,4095.6,24,23,OC,OC,OC,OC,OC,OC,OC,OC,410.4,624.6,0,FALSE,27355,115.6,100,,,,,,,,,4104.7,4100.8,4097.1,4096.8,4097.3,4098.2,4098.4,4099.5,4097.6,4096.3,4097.6,4107.7,N/A,N/A,N/A,N/A,N/A,N/A,4103.2,4098.8,4101.5,4102.2,4099.9,4099.9,4100.6,4100.7,4099.3,4099.2,4101.5,4111.5,N/A,N/A,N/A,N/A,N/A,N/A,4117.4,4110.2,4109.3,4109.9,4113.4,4115.4,4109,4110.8,4114.2,4109.2,4112.5,4123.3,N/A,N/A,N/A,N/A,N/A,N/A,0,0,0,23,23,23,23,OC,OC,OC,OC,OC,OC,OC,OC,26,25,24,23,24,24,OC,OC,OC,OC,OC,OC,OC,OC,26,25,23,23,24,24,OC,OC,OC,OC,OC,OC,OC,OC,25,24,0,0,,,,,,
2021-10-13 13:32:23,GOOD,0d 0h 39m 45s,ACTIVE,514,5.87,147,-89.6,4101.3,4072.3,24,23,OC,OC,OC,OC,OC,OC,OC,OC,410.4,624.6,0,FALSE,24679,115.6,100,,,,,,,,,4084,4080.3,4075,4072.5,4071,4071.9,4078.1,4079.5,4076.2,4072.2,4072.2,4082.4,N/A,N/A,N/A,N/A,N/A,N/A,4087.5,4085.6,4088.9,4084.3,4078.2,4077.6,4085.5,4086.1,4086.3,4081.5,4080.3,4089.3,N/A,N/A,N/A,N/A,N/A,N/A,4097.2,4089.6,4087.5,4086,4088.1,4089.7,4088.5,4090.9,4092.8,4085.1,4087.3,4098.4,N/A,N/A,N/A,N/A,N/A,N/A,0,0,0,23,23,23,23,OC,OC,OC,OC,OC,OC,OC,OC,26,25,24,24,24,24,OC,OC,OC,OC,OC,OC,OC,OC,26,25,24,23,24,24,OC,OC,OC,OC,OC,OC,OC,OC,25,24,0,0,,,,,,
2021-10-13 13:32:53,GOOD,0d 0h 40m 15s,ACTIVE,514,5.23,146.3,-88.6,4081.3,4054.6,24,23,OC,OC,OC,OC,OC,OC,OC,OC,410.4,624.6,0,FALSE,21842,115.6,100,,,,,,,,,4065.3,4062.6,4060.9,4061,4064.9,4063.7,4059.8,4061.4,4062.7,4061,4067.7,4073.9,N/A,N/A,N/A,N/A,N/A,N/A,4072,4070.3,4074.9,4071.3,4064.9,4064.3,4070,4073,4071.6,4066.9,4065.5,4074.6,N/A,N/A,N/A,N/A,N/A,N/A,4086.5,4078.3,4075,4070.6,4071.3,4072.3,4077.9,4077.9,4079,4068.4,4069.4,4080.7,N/A,N/A,N/A,N/A,N/A,N/A,0,0,0,23,23,23,23,OC,OC,OC,OC,OC,OC,OC,OC,26,25,24,24,24,24,OC,OC,OC,OC,OC,OC,OC,OC,26,25,24,24,24,24,OC,OC,OC,OC,OC,OC,OC,OC,25,24,0,0,,,,,,
2021-10-13 13:33:24,GOOD,0d 0h 40m 45s,ACTIVE,514,4.58,146.2,-90.9,4078.8,4048,24,23,OC,OC,OC,OC,OC,OC,OC,OC,410.4,624.6,0,FALSE,19174,115.6,100,,,,,,,,,4058.7,4055.9,4056.3,4053.5,4052.4,4051.4,4053.7,4054.5,4058.7,4052.6,4053.6,4061.6,N/A,N/A,N/A,N/A,N/A,N/A,4054.1,4051.6,4054.9,4058,4054.6,4056,4051.8,4053.3,4051.5,4054.3,4056.8,4066.2,N/A,N/A,N/A,N/A,N/A,N/A,4072.6,4066.8,4066.1,4068.4,4071.7,4072.1,4064.3,4067.8,4072.2,4066.7,4071.1,4078.6,N/A,N/A,N/A,N/A,N/A,N/A,0,0,0,23,23,23,23,OC,OC,OC,OC,OC,OC,OC,OC,26,25,24,24,24,24,OC,OC,OC,OC,OC,OC,OC,OC,26,25,24,24,24,24,OC,OC,OC,OC,OC,OC,OC,OC,25,24,0,0,,,,,,
2021-10-13 13:33:54,GOOD,0d 0h 41m 17s,ACTIVE,514,3.9,145.6,-88.8,4060.2,4033.1,24,23,OC,OC,OC,OC,OC,OC,OC,OC,410.4,624.6,0,FALSE,16486,115.6,100,,,,,,,,,4045.9,4043.4,4042.7,4042.8,4048,4044.5,4040.6,4042.6,4045.6,4043.4,4048.1,4054,N/A,N/A,N/A,N/A,N/A,N/A,4053.9,4050.1,4051.4,4047.5,4040.6,4040.6,4052,4050.7,4046.1,4042.8,4041.2,4050.8,N/A,N/A,N/A,N/A,N/A,N/A,4060,4053.6,4051.4,4051.4,4053.4,4055.8,4051.6,4054,4056.7,4049.4,4053.3,4063.3,N/A,N/A,N/A,N/A,N/A,N/A,0,0,0,23,23,23,23,OC,OC,OC,OC,OC,OC,OC,OC,26,25,24,24,24,24,OC,OC,OC,OC,OC,OC,OC,OC,26,25,24,24,24,24,OC,OC,OC,OC,OC,OC,OC,OC,25,24,0,0,,,,,,
2021-10-13 13:34:24,GOOD,0d 0h 41m 47s,ACTIVE,514,3.26,145.3,-89.1,4052.8,4025.2,24,23,OC,OC,OC,OC,OC,OC,OC,OC,410.4,624.6,0,FALSE,13800,115.6,100,,,,,,,,,4033.1,4031,4027.4,4026.5,4029.2,4028.3,4027.6,4029.5,4029.1,4026.3,4032.1,4039.2,N/A,N/A,N/A,N/A,N/A,N/A,4038.4,4037,4041,4043.6,4036.5,4036.2,4036.3,4039.6,4038.8,4038.5,4036.8,4045.4,N/A,N/A,N/A,N/A,N/A,N/A,4057.5,4049.8,4045.9,4041,4040.8,4042.2,4049,4049.4,4050.2,4038.4,4039.4,4050.3,N/A,N/A,N/A,N/A,N/A,N/A,0,0,0,23,23,23,23,OC,OC,OC,OC,OC,OC,OC,OC,26,25,24,24,24,24,OC,OC,OC,OC,OC,OC,OC,OC,26,25,24,24,24,24,OC,OC,OC,OC,OC,OC,OC,OC,25,24,0,0,,,,,,
2021-10-13 13:34:54,GOOD,0d 0h 42m 17s,ACTIVE,514,2.61,145.1,-91,4050.6,4019,24,23,OC,OC,OC,OC,OC,OC,OC,OC,410.4,624.6,1.7,FALSE,11107,115.6,100,,,,,,,,,4028.9,4026.5,4025.9,4025.8,4026,4024.4,4023.9,4024.4,4027.8,4024.9,4028.3,4034.9,N/A,N/A,N/A,N/A,N/A,N/A,4030.8,4029.5,4033.7,4032.7,4025.6,4025.2,4028.8,4030.6,4029.9,4028.5,4026.8,4035.6,N/A,N/A,N/A,N/A,N/A,N/A,4044.9,4039.6,4038.5,4041.3,4042.7,4042.5,4036.9,4040.5,4044.6,4039,4042.5,4050,N/A,N/A,N/A,N/A,N/A,N/A,0,0,0,23,23,23,23,OC,OC,OC,OC,OC,OC,OC,OC,26,25,24,24,24,24,OC,OC,OC,OC,OC,OC,OC,OC,26,25,24,24,24,24,OC,OC,OC,OC,OC,OC,OC,OC,25,24,0,0,,,,,,
2021-10-13 13:35:24,GOOD,0d 0h 42m 47s,ACTIVE,514,1.96,144.6,-89.9,4034.6,4006.1,24,23,OC,OC,OC,OC,OC,OC,OC,OC,410.4,624.6,12.7,FALSE,8266,115.6,100,,,,,,,,,4025,4022.6,4021.8,4014.6,4013.2,4012.4,4020.4,4021.5,4022.2,4013.9,4014.7,4023.3,N/A,N/A,N/A,N/A,N/A,N/A,4024.4,4020.3,4021.6,4018.2,4011.4,4011.6,4022.1,4022.1,4017,4014.5,4013,4022.8,N/A,N/A,N/A,N/A,N/A,N/A,4037,4029.4,4025.7,4021.5,4021.9,4023.3,4028.4,4030,4030.7,4019.6,4021,4031.8,N/A,N/A,N/A,N/A,N/A,N/A,0,0,0,23,23,23,23,OC,OC,OC,OC,OC,OC,OC,OC,26,25,24,24,24,24,OC,OC,OC,OC,OC,OC,OC,OC,26,25,24,24,24,24,OC,OC,OC,OC,OC,OC,OC,OC,25,24,0,0,,,,,,
2021-10-13 13:35:54,GOOD,0d 0h 43m 17s,ACTIVE,514,1.32,144.4,-90.7,4030.2,3998.6,25,23,OC,OC,OC,OC,OC,OC,OC,OC,410.4,624.6,17.6,FALSE,5592,115.6,100,,,,,,,,,4012.6,4010,4004.1,4000,3999.2,3999.2,4007,4008.3,4005.2,3999.1,4001,4010.1,N/A,N/A,N/A,N/A,N/A,N/A,4010,4006.4,4008.3,4007.3,4001.6,4002.5,4007.4,4009,4004.3,4004,4003.7,4013.7,N/A,N/A,N/A,N/A,N/A,N/A,4029.2,4021.7,4018.1,4014,4014.2,4015.7,4020.6,4022.3,4023.1,4012,4013.4,4024.1,N/A,N/A,N/A,N/A,N/A,N/A,0,0,0,23,23,23,23,OC,OC,OC,OC,OC,OC,OC,OC,26,25,25,24,24,24,OC,OC,OC,OC,OC,OC,OC,OC,26,25,24,24,25,24,OC,OC,OC,OC,OC,OC,OC,OC,25,24,0,0,,,,,,
2021-10-13 13:36:24,GOOD,0d 0h 43m 45s,ACTIVE,514,0.67,144,-89.6,4016.8,3988.9,25,23,OC,OC,OC,OC,OC,OC,OC,OC,410.4,624.6,29,FALSE,2875,115.6,100,,,,,,,,,4002.4,4000.2,3994.3,3990.8,3990.7,3990.5,3996.8,3998.8,3996,3990.7,3993.3,4002,N/A,N/A,N/A,N/A,N/A,N/A,4001.7,3998.2,3999.9,3999,3993.1,3993.8,3999.2,3999.5,3994.8,3994.6,3994.2,4004.1,N/A,N/A,N/A,N/A,N/A,N/A,4022.3,4014.9,4010.9,4006.5,4006.5,4007.9,4013.8,4015.4,4016.3,4004.6,4005.7,4016.5,N/A,N/A,N/A,N/A,N/A,N/A,0,0,0,23,23,23,24,OC,OC,OC,OC,OC,OC,OC,OC,26,25,25,24,25,24,OC,OC,OC,OC,OC,OC,OC,OC,26,25,24,24,25,24,OC,OC,OC,OC,OC,OC,OC,OC,25,24,0,0,,,,,,
2021-10-13 13:36:55,GOOD,0d 0h 44m 17s,ACTIVE,514,0,143.7,-90.8,4011.5,3981.6,25,23,OC,OC,OC,OC,OC,OC,OC,OC,410.4,624.6,30.8,FALSE,170,115.6,100,,,,,,,,,3999.1,3997.2,3997,3989.8,3988.8,3988.1,3994.6,3994.8,3998.5,3989,3990.7,3998.6,N/A,N/A,N/A,N/A,N/A,N/A,4000.1,3999,4000.2,3996.7,3989.7,3989.7,3998.1,4000.1,3995.2,3992.5,3990.6,3999.7,N/A,N/A,N/A,N/A,N/A,N/A,4017.4,4009.6,4005.8,4000.1,3999.6,4000.7,4009.3,4010,4011,3998.1,3998.9,4009.2,N/A,N/A,N/A,N/A,N/A,N/A,0,0,0,24,23,23,24,OC,OC,OC,OC,OC,OC,OC,OC,26,25,25,24,25,25,OC,OC,OC,OC,OC,OC,OC,OC,26,25,24,24,25,25,OC,OC,OC,OC,OC,OC,OC,OC,25,24,0,0,,,,,,
2021-10-13 13:37:25,GOOD,0d 0h 44m 47s,ACTIVE,514,0,143.6,-89.9,4006.3,3978.2,25,23,OC,OC,OC,OC,OC,OC,OC,OC,410.4,624.6,38.6,FALSE,-2498,115.6,100,,,,,,,,,3983.8,3982.1,3980.1,3979.5,3984.8,3982.5,3978.7,3979.7,3981.6,3978.4,3986.9,3991.7,N/A,N/A,N/A,N/A,N/A,N/A,3984,3982.5,3985.8,3989.9,3986.2,3988,3981.7,3983.6,3981.3,3985.1,3987.8,3996.6,N/A,N/A,N/A,N/A,N/A,N/A,4000.4,3994.8,3993,3994.3,3996.6,3999.3,3992.4,3994.9,3998.4,3991.5,3996.4,4005.3,N/A,N/A,N/A,N/A,N/A,N/A,0,0,0,24,23,24,24,OC,OC,OC,OC,OC,OC,OC,OC,26,25,25,25,25,25,OC,OC,OC,OC,OC,OC,OC,OC,26,25,25,25,25,25,OC,OC,OC,OC,OC,OC,OC,OC,25,24,0,0,,,,,,
2021-10-13 13:37:55,GOOD,0d 0h 45m 17s,ACTIVE,514,0,143.3,-91,4000.5,3967.8,25,23,OC,OC,OC,OC,OC,OC,OC,OC,410.4,624.6,46,FALSE,-5326,115.6,100,,,,,,,,,3978,3976.3,3975.5,3975.2,3977,3974.8,3973.1,3974.1,3977.4,3974.3,3980.1,3985.3,N/A,N/A,N/A,N/A,N/A,N/A,3978.5,3977.4,3981.3,3984.6,3977.4,3977.1,3976.5,3978.8,3977.4,3980.5,3979,3986.9,N/A,N/A,N/A,N/A,N/A,N/A,3997.5,3993,3992.3,3987.7,3986.9,3987.6,3989.7,3993.5,3998.4,3984.6,3985.4,3994.9,N/A,N/A,N/A,N/A,N/A,N/A,0,0,0,24,23,24,24,OC,OC,OC,OC,OC,OC,OC,OC,26,25,25,25,25,25,OC,OC,OC,OC,OC,OC,OC,OC,26,25,25,25,25,25,OC,OC,OC,OC,OC,OC,OC,OC,25,24,0,0,,,,,,
2021-10-13 13:38:25,GOOD,0d 0h 45m 47s,ACTIVE,514,0,142.8,-89.2,3982.8,3956.2,25,24,OC,OC,OC,OC,OC,OC,OC,OC,416.2,628.2,59.9,FALSE,-8011,115.6,100,,,,,,,,,3964.7,3963.3,3959.3,3957.7,3961.1,3959.8,3959.6,3961.5,3960.9,3957.3,3963.3,3970.1,N/A,N/A,N/A,N/A,N/A,N/A,3967.2,3964.3,3966.2,3966.7,3961.7,3962.8,3964.5,3965.9,3961.8,3963,3963.5,3973.2,N/A,N/A,N/A,N/A,N/A,N/A,3982.5,3976.6,3974.2,3973.6,3975.3,3977.7,3974.3,3976.8,3979.2,3971.4,3975.1,3984.9,N/A,N/A,N/A,N/A,N/A,N/A,0,0,0,24,24,24,24,OC,OC,OC,OC,OC,OC,OC,OC,26,25,25,25,25,25,OC,OC,OC,OC,OC,OC,OC,OC,26,25,25,25,25,25,OC,OC,OC,OC,OC,OC,OC,OC,25,24,0,0,,,,,,
2021-10-13 13:38:55,GOOD,0d 0h 46m 18s,ACTIVE,514,0,142.6,-90.8,3981.3,3950.3,25,24,OC,OC,OC,OC,OC,OC,OC,OC,416.2,628.2,62.1,FALSE,-10694,115.6,100,,,,,,,,,3959,3957.4,3955.6,3954.7,3960.2,3957.9,3954.1,3955.7,3958,3954.5,3963.3,3968.1,N/A,N/A,N/A,N/A,N/A,N/A,3961.9,3960.9,3964.5,3969.3,3962.6,3962.3,3959.8,3962.2,3960.6,3965.2,3964,3971.6,N/A,N/A,N/A,N/A,N/A,N/A,3975,3969.6,3967.6,3968.2,3970.3,3973,3967,3970.4,3973.5,3966.4,3970.9,3980,N/A,N/A,N/A,N/A,N/A,N/A,0,0,0,24,24,24,24,OC,OC,OC,OC,OC,OC,OC,OC,26,25,25,25,25,25,OC,OC,OC,OC,OC,OC,OC,OC,26,25,25,25,25,25,OC,OC,OC,OC,OC,OC,OC,OC,25,24,0,0,,,,,,
2021-10-13 13:39:25,GOOD,0d 0h 46m 48s,ACTIVE,514,0,142.2,-88.9,3967.6,3940.8,25,24,OC,OC,OC,OC,OC,OC,OC,OC,416.2,628.2,71.6,FALSE,-13386,115.6,100,,,,,,,,,3950,3948.7,3943.6,3940.8,3942.2,3941.6,3944.6,3946.7,3944.8,3940.4,3944.5,3952.4,N/A,N/A,N/A,N/A,N/A,N/A,3961.6,3957.8,3958.6,3955.1,3948.3,3948.5,3959.4,3958.7,3953.8,3951,3949.3,3958.3,N/A,N/A,N/A,N/A,N/A,N/A,3972.4,3965.4,3961.5,3957.1,3957.1,3958.6,3964.2,3965.3,3966,3955,3956.1,3966.6,N/A,N/A,N/A,N/A,N/A,N/A,0,0,0,24,24,24,24,OC,OC,OC,OC,OC,OC,OC,OC,26,25,25,25,25,25,OC,OC,OC,OC,OC,OC,OC,OC,26,25,25,25,25,25,OC,OC,OC,OC,OC,OC,OC,OC,25,24,0,0,,,,,,
2021-10-13 13:39:56,GOOD,0d 0h 47m 18s,ACTIVE,514,0,142.2,-91.2,3968.6,3936.3,26,24,OC,OC,OC,OC,OC,OC,OC,OC,416.2,628.2,78.1,FALSE,-16201,115.6,100,,,,,,,,,3944.4,3943,3941.6,3940.8,3947.2,3944,3939.8,3940.7,3943,3939.6,3948.8,3953,N/A,N/A,N/A,N/A,N/A,N/A,3943.9,3941.1,3942.7,3942.6,3937.5,3938.4,3941.1,3942.5,3938.1,3938.2,3938.1,3947.7,N/A,N/A,N/A,N/A,N/A,N/A,3967.3,3960.2,3956.1,3950.8,3950.7,3951.9,3959.1,3961.4,3962.4,3949.8,3950.6,3960.7,N/A,N/A,N/A,N/A,N/A,N/A,0,0,0,24,24,24,24,OC,OC,OC,OC,OC,OC,OC,OC,26,25,25,25,25,25,OC,OC,OC,OC,OC,OC,OC,OC,26,25,25,25,26,25,OC,OC,OC,OC,OC,OC,OC,OC,25,24,0,0,,,,,,
2021-10-13 13:40:26,GOOD,0d 0h 47m 48s,ACTIVE,514,0,141.8,-89.7,3957.9,3930,26,24,OC,OC,OC,OC,OC,OC,OC,OC,416.2,628.2,87.8,FALSE,-18899,115.6,100,,,,,,,,,3936.2,3935.1,3933.4,3932.7,3939,3936.3,3931.6,3933.5,3936.5,3933.1,3942.8,3946.1,N/A,N/A,N/A,N/A,N/A,N/A,3943.9,3940.5,3941.2,3938.1,3931.2,3931.5,3941,3941.1,3936,3933.9,3932.4,3941.6,N/A,N/A,N/A,N/A,N/A,N/A,3951.2,3945,3941.9,3940.1,3941.2,3943.2,3943.3,3945.7,3947.5,3938.7,3941.6,3951.6,N/A,N/A,N/A,N/A,N/A,N/A,0,0,0,24,24,24,24,OC,OC,OC,OC,OC,OC,OC,OC,26,25,26,25,25,25,OC,OC,OC,OC,OC,OC,OC,OC,26,25,25,25,26,25,OC,OC,OC,OC,OC,OC,OC,OC,25,24,0,0,,,,,,
2021-10-13 13:40:56,GOOD,0d 0h 48m 18s,ACTIVE,514,0,141.4,-89.3,3943.2,3916.4,26,24,OC,OC,OC,OC,OC,OC,OC,OC,416.2,628.2,90,FALSE,-21569,115.6,100,,,,,,,,,3925.3,3924.3,3921.5,3920.2,3924.8,3923.1,3920.5,3922.6,3923.2,3919.6,3927.1,3932.7,N/A,N/A,N/A,N/A,N/A,N/A,3928.2,3926.6,3929.6,3933.3,3929.8,3931.6,3925.6,3927.8,3925.5,3929.1,3931.5,3940.1,N/A,N/A,N/A,N/A,N/A,N/A,3943.9,3939.1,3937.4,3938.8,3941.2,3944,3936.2,3938.9,3942.3,3936,3941.1,3949.5,N/A,N/A,N/A,N/A,N/A,N/A,0,0,0,24,24,24,24,OC,OC,OC,OC,OC,OC,OC,OC,26,25,26,25,26,25,OC,OC,OC,OC,OC,OC,OC,OC,26,25,25,25,26,25,OC,OC,OC,OC,OC,OC,OC,OC,25,24,0,0,,,,,,
2021-10-13 13:41:26,GOOD,0d 0h 48m 48s,ACTIVE,514,0,141.3,-91,3941.2,3917.5,26,24,OC,OC,OC,OC,OC,OC,OC,OC,416.2,628.2,90,FALSE,-24273,115.6,100,,,,,,,,,3927,3925.4,3925.7,3918.5,3918.4,3917.2,3922.7,3923.7,3927.4,3917.2,3919.4,3926.7,N/A,N/A,N/A,N/A,N/A,N/A,3922.9,3919.6,3920.6,3919.5,3913.6,3914.2,3920,3920.2,3915.5,3915.3,3914.7,3924.2,N/A,N/A,N/A,N/A,N/A,N/A,3936.2,3930.6,3928,3927.9,3929.7,3932.2,3928.1,3931.1,3934,3926.7,3930.8,3939.7,N/A,N/A,N/A,N/A,N/A,N/A,0,0,0,24,24,24,24,OC,OC,OC,OC,OC,OC,OC,OC,26,25,26,26,26,26,OC,OC,OC,OC,OC,OC,OC,OC,26,25,26,25,26,26,OC,OC,OC,OC,OC,OC,OC,OC,25,24,0,0,,,,,,
2021-10-13 13:41:56,GOOD,0d 0h 49m 18s,ACTIVE,514,0,141,-91.1,3934.7,3904,26,24,OC,OC,OC,OC,OC,OC,OC,OC,416.2,628.2,90,FALSE,-26955,115.6,100,,,,,,,,,3910.8,3909.8,3904.9,3902,3904,3903.2,3905.9,3908.6,3906.8,3901.8,3905.9,3913.7,N/A,N/A,N/A,N/A,N/A,N/A,3919,3918.6,3922.4,3919.3,3912.3,3912,3916.8,3918.3,3917.1,3916.3,3914.7,3922.7,N/A,N/A,N/A,N/A,N/A,N/A,3927.9,3923,3921.3,3922.3,3924.7,3927.4,3920.3,3922.5,3925.7,3919.1,3923.7,3932.2,N/A,N/A,N/A,N/A,N/A,N/A,0,0,0,24,24,24,24,OC,OC,OC,OC,OC,OC,OC,OC,26,25,26,26,26,26,OC,OC,OC,OC,OC,OC,OC,OC,26,26,26,26,26,26,OC,OC,OC,OC,OC,OC,OC,OC,25,24,0,0,,,,,,
2021-10-13 13:42:26,GOOD,0d 0h 49m 48s,ACTIVE,514,0,140.8,-90.1,3927,3901.8,26,24,OC,OC,OC,OC,OC,OC,OC,OC,416.2,628.2,90,FALSE,-29640,115.6,100,,,,,,,,,3902.4,3901.4,3897.3,3895.1,3898.4,3897.1,3897.6,3900.1,3899.6,3895.4,3901.4,3908,N/A,N/A,N/A,N/A,N/A,N/A,3903.8,3902.3,3904.9,3908.6,3904.7,3906.3,3901.2,3904.1,3901.4,3905,3907,3915.7,N/A,N/A,N/A,N/A,N/A,N/A,3923.7,3917.1,3913.5,3910.1,3910.3,3912.2,3915.9,3917.5,3918.4,3908.6,3910.3,3920.2,N/A,N/A,N/A,N/A,N/A,N/A,0,0,0,24,24,24,24,OC,OC,OC,OC,OC,OC,OC,OC,26,25,26,26,26,26,OC,OC,OC,OC,OC,OC,OC,OC,26,26,26,26,26,26,OC,OC,OC,OC,OC,OC,OC,OC,25,24,0,0,,,,,,
2021-10-13 13:42:57,GOOD,0d 0h 50m 18s,ACTIVE,514,0,140.4,-88.9,3914.8,3888.6,26,24,OC,OC,OC,OC,OC,OC,OC,OC,416.2,628.2,90,FALSE,-32489,115.6,100,,,,,,,,,3895.2,3894.4,3890.5,3888.7,3892.5,3890.9,3890.4,3892.9,3892.3,3888.1,3894,3900.6,N/A,N/A,N/A,N/A,N/A,N/A,3902,3898.8,3899.4,3897.4,3891.5,3892.1,3899.2,3900.9,3895.7,3894.2,3893.2,3902.2,N/A,N/A,N/A,N/A,N/A,N/A,3917.8,3913.7,3912.9,3911.5,3910.4,3911.1,3910.7,3912.2,3916.5,3910.4,3911.5,3919,N/A,N/A,N/A,N/A,N/A,N/A,0,0,0,25,24,24,25,OC,OC,OC,OC,OC,OC,OC,OC,26,25,26,26,26,26,OC,OC,OC,OC,OC,OC,OC,OC,26,26,26,26,26,26,OC,OC,OC,OC,OC,OC,OC,OC,25,24,0,0,,,,,,
2021-10-13 13:43:27,GOOD,0d 0h 50m 48s,ACTIVE,514,0,140.1,-89.1,3907.2,3881,26,24,OC,OC,OC,OC,OC,OC,OC,OC,416.2,628.2,90,FALSE,-35173,115.6,100,,,,,,,,,3887.5,3887,3882.3,3879.7,3882.7,3881.6,3882.9,3885,3884.2,3879.5,3885.2,3892,N/A,N/A,N/A,N/A,N/A,N/A,3899.6,3896.2,3896.6,3893.6,3886.8,3887,3896.8,3896.7,3891.5,3889.2,3887.4,3896.2,N/A,N/A,N/A,N/A,N/A,N/A,3908.6,3902.3,3898.7,3895,3895.2,3896.9,3900.9,3902,3903,3893.1,3894.8,3904.4,N/A,N/A,N/A,N/A,N/A,N/A,0,0,0,25,24,25,25,OC,OC,OC,OC,OC,OC,OC,OC,26,25,26,26,26,26,OC,OC,OC,OC,OC,OC,OC,OC,26,26,26,26,26,26,OC,OC,OC,OC,OC,OC,OC,OC,25,24,0,0,,,,,,
2021-10-13 13:43:57,GOOD,0d 0h 51m 20s,ACTIVE,514,0,140,-91,3903.1,3880.8,26,25,OC,OC,OC,OC,OC,OC,OC,OC,422.1,631.7,90,FALSE,-37855,115.6,100,,,,,,,,,3887.7,3886.1,3880.4,3875.6,3876.3,3875.5,3883.1,3883.3,3881.1,3874.6,3877.6,3885.4,N/A,N/A,N/A,N/A,N/A,N/A,3883.3,3880.8,3882,3882.2,3877,3878,3880.5,3881.3,3876.9,3877.8,3878,3887.2,N/A,N/A,N/A,N/A,N/A,N/A,3906.6,3902.9,3900.8,3894.5,3893.4,3894.2,3899.6,3903.1,3905.3,3892.3,3892.9,3901.5,N/A,N/A,N/A,N/A,N/A,N/A,0,0,0,25,25,25,25,OC,OC,OC,OC,OC,OC,OC,OC,26,25,26,26,26,26,OC,OC,OC,OC,OC,OC,OC,OC,26,26,26,26,26,26,OC,OC,OC,OC,OC,OC,OC,OC,25,24,0,0,,,,,,
2021-10-13 13:44:27,GOOD,0d 0h 51m 50s,ACTIVE,514,0,139.5,-88.8,3891.8,3866.3,27,25,OC,OC,OC,OC,OC,OC,OC,OC,422.1,631.7,90,FALSE,-40541,115.6,100,,,,,,,,,3879.2,3878.3,3878.4,3873.8,3874.5,3872.7,3875.4,3874.9,3879.3,3874.3,3877.9,3883.6,N/A,N/A,N/A,N/A,N/A,N/A,3874.8,3873.7,3876.1,3880,3876.3,3878,3872.2,3874,3871.2,3874.8,3876.6,3885,N/A,N/A,N/A,N/A,N/A,N/A,3892.7,3886.4,3882.9,3879.7,3880.1,3881.8,3885.2,3887.4,3888.2,3878.2,3879.7,3889.2,N/A,N/A,N/A,N/A,N/A,N/A,0,0,0,25,25,25,25,OC,OC,OC,OC,OC,OC,OC,OC,26,25,27,26,26,26,OC,OC,OC,OC,OC,OC,OC,OC,26,26,26,26,27,26,OC,OC,OC,OC,OC,OC,OC,OC,25,24,0,0,,,,,,
2021-10-13 13:44:57,GOOD,0d 0h 52m 20s,ACTIVE,514,0,139.3,-90.4,3885.7,3857.9,27,25,OC,OC,OC,OC,OC,OC,OC,OC,422.1,631.7,90,FALSE,-43366,115.6,100,,,,,,,,,3867.7,3867.1,3861.6,3858.2,3859.9,3859,3863,3865.4,3863.4,3858,3861.9,3869.4,N/A,N/A,N/A,N/A,N/A,N/A,3870,3867.2,3867.9,3867.2,3861.4,3862.2,3867.1,3868.3,3863.4,3863,3862.2,3871.3,N/A,N/A,N/A,N/A,N/A,N/A,3884.8,3878.9,3875.5,3872.8,3873.2,3875.1,3877.5,3879.2,3880.3,3870.9,3872.8,3882.1,N/A,N/A,N/A,N/A,N/A,N/A,0,0,0,25,25,25,25,OC,OC,OC,OC,OC,OC,OC,OC,26,25,27,26,27,26,OC,OC,OC,OC,OC,OC,OC,OC,26,26,26,26,27,26,OC,OC,OC,OC,OC,OC,OC,OC,25,24,0,0,,,,,,
2021-10-13 13:45:27,GOOD,0d 0h 52m 50s,ACTIVE,514,0,139.1,-90.6,3880.4,3852,27,25,OC,OC,OC,OC,OC,OC,OC,OC,422.1,631.7,90,FALSE,-46045,115.6,100,,,,,,,,,3859.1,3858.8,3856.3,3854.9,3860.6,3858,3855.1,3857,3858.6,3854.7,3863.1,3867.5,N/A,N/A,N/A,N/A,N/A,N/A,3860,3858.3,3860,3862.7,3858.4,3859.9,3857.1,3859.2,3855.9,3858.6,3859.7,3868.3,N/A,N/A,N/A,N/A,N/A,N/A,3875.8,3870.4,3867.3,3865.6,3866.5,3868.6,3868.7,3870.3,3871.8,3863.2,3865.8,3874.7,N/A,N/A,N/A,N/A,N/A,N/A,0,0,0,25,25,25,25,OC,OC,OC,OC,OC,OC,OC,OC,26,25,27,27,27,27,OC,OC,OC,OC,OC,OC,OC,OC,26,26,26,26,27,27,OC,OC,OC,OC,OC,OC,OC,OC,25,24,0,0,,,,,,
2021-10-13 13:45:57,GOOD,0d 0h 53m 18s,ACTIVE,514,0,138.7,-89.1,3868.2,3842.9,27,25,OC,OC,OC,OC,OC,OC,OC,OC,422.1,631.7,90,FALSE,-48729,115.6,100,,,,,,,,,3855.4,3854.4,3848.8,3844.8,3846.1,3845.1,3850.9,3851.8,3849.9,3844,3847.5,3855,N/A,N/A,N/A,N/A,N/A,N/A,3859.6,3859.5,3862.7,3861.5,3854.5,3854.3,3857.4,3859.9,3858.8,3857.5,3855.7,3863.3,N/A,N/A,N/A,N/A,N/A,N/A,3878.7,3872.2,3868.4,3862.6,3862,3863,3871.9,3872.1,3873,3860.9,3861.6,3870.3,N/A,N/A,N/A,N/A,N/A,N/A,0,0,0,25,25,25,25,OC,OC,OC,OC,OC,OC,OC,OC,26,25,27,27,27,27,OC,OC,OC,OC,OC,OC,OC,OC,26,26,27,27,27,27,OC,OC,OC,OC,OC,OC,OC,OC,25,24,0,0,,,,,,
2021-10-13 13:46:28,GOOD,0d 0h 53m 50s,ACTIVE,514,0,138.6,-91,3868.2,3838.6,27,25,OC,OC,OC,OC,OC,OC,OC,OC,422.1,631.7,90,FALSE,-51412,115.6,100,,,,,,,,,3848.8,3847.8,3842.2,3838,3839.2,3838.3,3844.4,3846.3,3844.4,3838.1,3841.5,3849,N/A,N/A,N/A,N/A,N/A,N/A,3851.6,3848.6,3848.8,3847,3840.8,3841.3,3848.7,3850,3844.7,3843.5,3842.3,3850.9,N/A,N/A,N/A,N/A,N/A,N/A,3863.8,3858,3854.7,3851.7,3852.1,3853.9,3856.7,3858.1,3859.2,3849.7,3851.5,3860.6,N/A,N/A,N/A,N/A,N/A,N/A,0,0,0,25,25,25,25,OC,OC,OC,OC,OC,OC,OC,OC,26,25,27,27,27,27,OC,OC,OC,OC,OC,OC,OC,OC,26,26,27,27,27,27,OC,OC,OC,OC,OC,OC,OC,OC,25,24,0,0,,,,,,
2021-10-13 13:46:58,GOOD,0d 0h 54m 20s,ACTIVE,514,0,138.3,-89.7,3857.7,3832,27,25,OC,OC,OC,OC,OC,OC,OC,OC,422.1,631.7,90,FALSE,-54098,115.6,100,,,,,,,,,3835.6,3835.4,3832.4,3830.7,3835.9,3833.6,3831.5,3833.2,3834.3,3830.3,3838.1,3843,N/A,N/A,N/A,N/A,N/A,N/A,3838.5,3836.4,3837.5,3838.9,3834.1,3835.4,3835.5,3837,3832.9,3834.5,3835.1,3844,N/A,N/A,N/A,N/A,N/A,N/A,3852.5,3847.6,3845,3844.5,3845.8,3848.2,3845.5,3847.5,3849.6,3842.4,3846.1,3854.4,N/A,N/A,N/A,N/A,N/A,N/A,0,0,0,25,25,25,25,OC,OC,OC,OC,OC,OC,OC,OC,26,25,27,27,27,27,OC,OC,OC,OC,OC,OC,OC,OC,27,26,27,27,27,27,OC,OC,OC,OC,OC,OC,OC,OC,25,24,0,0,,,,,,
2021-10-13 13:47:28,GOOD,0d 0h 54m 50s,ACTIVE,514,0,138.1,-91.1,3853.3,3824,27,25,OC,OC,OC,OC,OC,OC,OC,OC,422.1,631.7,90,FALSE,-56939,115.6,100,,,,,,,,,3831.6,3831.1,3825.7,3822.1,3824,3822.9,3827.1,3829.3,3827.4,3821.9,3825.8,3833.1,N/A,N/A,N/A,N/A,N/A,N/A,3835.1,3832.2,3832.6,3831.2,3825.4,3826.2,3832.2,3833.3,3828.1,3827.3,3826.2,3835.2,N/A,N/A,N/A,N/A,N/A,N/A,3848.5,3842.8,3839.4,3836.5,3836.7,3838.5,3841.4,3843,3843.9,3834.8,3836.7,3845.4,N/A,N/A,N/A,N/A,N/A,N/A,0,0,0,25,25,25,25,OC,OC,OC,OC,OC,OC,OC,OC,26,25,27,27,27,27,OC,OC,OC,OC,OC,OC,OC,OC,27,26,27,27,27,27,OC,OC,OC,OC,OC,OC,OC,OC,25,24,0,0,,,,,,
2021-10-13 13:47:58,GOOD,0d 0h 55m 20s,ACTIVE,514,0,137.9,-91.1,3846.3,3820.2,27,25,OC,OC,OC,OC,OC,OC,OC,OC,422.1,631.7,90,FALSE,-59622,115.6,100,,,,,,,,,3823.1,3822.9,3818.4,3815.9,3819.4,3817.9,3818.9,3820.5,3819.8,3815.2,3821.1,3827.1,N/A,N/A,N/A,N/A,N/A,N/A,3823.5,3821.9,3823.5,3826.2,3821.8,3823.3,3820.6,3823.1,3819.7,3822.6,3823.8,3832.2,N/A,N/A,N/A,N/A,N/A,N/A,3839.3,3835.4,3833.8,3835.6,3837.8,3840.5,3832.7,3836.1,3839.5,3834,3839.6,3846.1,N/A,N/A,N/A,N/A,N/A,N/A,0,0,0,25,25,25,25,OC,OC,OC,OC,OC,OC,OC,OC,26,25,27,27,27,27,OC,OC,OC,OC,OC,OC,OC,OC,27,26,27,27,27,27,OC,OC,OC,OC,OC,OC,OC,OC,25,24,0,0,,,,,,
2021-10-13 13:48:28,GOOD,0d 0h 55m 50s,ACTIVE,514,0,137.7,-90.6,3837.7,3815,28,25,OC,OC,OC,OC,OC,OC,OC,OC,422.1,631.7,90,FALSE,-62297,115.6,100,,,,,,,,,3817.2,3816.9,3815.7,3814.4,3821.5,3818.2,3813.7,3814.4,3817.7,3813.6,3823.9,3826.6,N/A,N/A,N/A,N/A,N/A,N/A,3817,3815.1,3816.4,3818.2,3813.6,3815,3814.1,3816.1,3812.4,3814.6,3815.4,3824,N/A,N/A,N/A,N/A,N/A,N/A,3831.3,3827,3825.1,3826.1,3827.9,3830.4,3824.5,3827.7,3830.7,3824.4,3829.1,3836.4,N/A,N/A,N/A,N/A,N/A,N/A,0,0,0,26,25,25,26,OC,OC,OC,OC,OC,OC,OC,OC,26,25,27,27,27,27,OC,OC,OC,OC,OC,OC,OC,OC,27,26,27,27,28,27,OC,OC,OC,OC,OC,OC,OC,OC,25,24,0,0,,,,,,
2021-10-13 13:48:58,GOOD,0d 0h 56m 21s,ACTIVE,514,0,137.1,-90.1,3824.7,3799.3,28,25,OC,OC,OC,OC,OC,OC,OC,OC,422.1,631.7,90,FALSE,-65001,115.6,100,,,,,,,,,3807.5,3807.3,3802.8,3800.1,3803.5,3802,3803.3,3806.5,3805.6,3800.4,3805.4,3812.1,N/A,N/A,N/A,N/A,N/A,N/A,3819.3,3816.8,3816.8,3813.8,3806.9,3807.2,3817,3818,3814.1,3811.3,3809.4,3817.3,N/A,N/A,N/A,N/A,N/A,N/A,3828.8,3825.5,3824.5,3826.2,3824.7,3825.2,3822.4,3823.6,3827.6,3822.7,3827.3,3832.2,N/A,N/A,N/A,N/A,N/A,N/A,0,0,0,26,25,26,26,OC,OC,OC,OC,OC,OC,OC,OC,26,25,28,27,27,27,OC,OC,OC,OC,OC,OC,OC,OC,27,26,27,27,28,27,OC,OC,OC,OC,OC,OC,OC,OC,25,25,0,0,,,,,,
2021-10-13 13:49:28,GOOD,0d 0h 56m 51s,ACTIVE,514,0,137.1,-91.2,3825.2,3795.7,28,26,OC,OC,OC,OC,OC,OC,OC,OC,427.9,635.3,90,FALSE,-67683,115.6,100,,,,,,,,,3809.5,3809,3809.3,3801.1,3801.6,3800.1,3806.4,3807.7,3809.1,3799.8,3802.4,3809,N/A,N/A,N/A,N/A,N/A,N/A,3805.2,3802.8,3803.4,3803,3797.4,3798.5,3802.3,3803.3,3798.7,3798.9,3798.4,3807.3,N/A,N/A,N/A,N/A,N/A,N/A,3816.3,3812.1,3809.7,3810,3811.7,3814.1,3809.6,3812.3,3815,3808.6,3812.9,3820.2,N/A,N/A,N/A,N/A,N/A,N/A,0,0,0,26,26,26,26,OC,OC,OC,OC,OC,OC,OC,OC,26,25,28,27,28,28,OC,OC,OC,OC,OC,OC,OC,OC,27,26,27,27,28,28,OC,OC,OC,OC,OC,OC,OC,OC,25,25,0,0,,,,,,
2021-10-13 13:49:58,GOOD,0d 0h 57m 21s,ACTIVE,514,0,136.7,-89.7,3813.4,3788.3,28,26,OC,OC,OC,OC,OC,OC,OC,OC,427.9,635.3,90,FALSE,-70369,115.6,100,,,,,,,,,3804.5,3802.3,3797.8,3791.3,3791.7,3790.5,3801.6,3800.2,3800.5,3791.5,3794.1,3800.8,N/A,N/A,N/A,N/A,N/A,N/A,3797.8,3797.4,3800.1,3805.4,3800.2,3799.6,3795.4,3797.7,3796.1,3801,3801.2,3807.4,N/A,N/A,N/A,N/A,N/A,N/A,3812.9,3807.5,3804.2,3801.1,3801.3,3803.2,3806,3807.9,3808.8,3799.2,3800.9,3809.4,N/A,N/A,N/A,N/A,N/A,N/A,0,0,0,26,26,26,26,OC,OC,OC,OC,OC,OC,OC,OC,26,25,28,28,28,28,OC,OC,OC,OC,OC,OC,OC,OC,27,26,28,28,28,28,OC,OC,OC,OC,OC,OC,OC,OC,25,25,0,0,,,,,,
2021-10-13 13:50:29,GOOD,0d 0h 57m 51s,ACTIVE,514,0,136.5,-90,3808.1,3782.6,28,26,OC,OC,OC,OC,OC,OC,OC,OC,427.9,635.3,90,FALSE,-73212,115.6,100,,,,,,,,,3786.4,3786.5,3783.9,3782.3,3787.7,3785.2,3782.8,3784.3,3786.2,3781.7,3790,3794.3,N/A,N/A,N/A,N/A,N/A,N/A,3789.1,3787,3787.6,3788.3,3783.2,3784.7,3786,3787.7,3783.3,3783.8,3783.6,3792.6,N/A,N/A,N/A,N/A,N/A,N/A,3812.3,3806.3,3802.4,3797.1,3796.2,3797.3,3805.9,3807.6,3808,3796,3796.7,3804.3,N/A,N/A,N/A,N/A,N/A,N/A,0,0,0,26,26,26,26,OC,OC,OC,OC,OC,OC,OC,OC,26,25,28,28,28,28,OC,OC,OC,OC,OC,OC,OC,OC,27,26,28,28,28,28,OC,OC,OC,OC,OC,OC,OC,OC,25,25,0,0,,,,,,
2021-10-13 13:50:59,GOOD,0d 0h 58m 20s,ACTIVE,514,0,136.1,-89.5,3795.3,3770.7,28,26,OC,OC,OC,OC,OC,OC,OC,OC,427.9,635.3,90,FALSE,-75892,115.6,100,,,,,,,,,3780.5,3780.3,3774.8,3771,3773.2,3772,3776.4,3778.8,3777.3,3771.6,3775.8,3782.7,N/A,N/A,N/A,N/A,N/A,N/A,3787.7,3785,3784.9,3782.9,3776.8,3777.4,3784.6,3784.9,3779.6,3778.2,3776.8,3785.7,N/A,N/A,N/A,N/A,N/A,N/A,3800.5,3794.8,3791,3787,3786.7,3788.2,3793.8,3794.3,3794.6,3784.6,3786.2,3794.3,N/A,N/A,N/A,N/A,N/A,N/A,0,0,0,26,26,26,26,OC,OC,OC,OC,OC,OC,OC,OC,26,25,28,28,28,28,OC,OC,OC,OC,OC,OC,OC,OC,27,26,28,28,28,28,OC,OC,OC,OC,OC,OC,OC,OC,25,25,0,0,,,,,,
2021-10-13 13:51:29,GOOD,0d 0h 58m 50s,ACTIVE,514,0,135.8,-88.9,3786.7,3763.1,28,26,OC,OC,OC,OC,OC,OC,OC,OC,427.9,635.3,90,FALSE,-78586,115.6,100,,,,,,,,,3770.4,3770.5,3767.7,3765.9,3771.2,3768.9,3766.7,3768.9,3770.4,3766,3774,3778.6,N/A,N/A,N/A,N/A,N/A,N/A,3772.2,3770.6,3772,3774.5,3770.2,3771.7,3769.3,3771.6,3768.3,3770.4,3771.4,3780.1,N/A,N/A,N/A,N/A,N/A,N/A,3787.3,3783.1,3780.8,3781.4,3783,3785.5,3780.7,3783.1,3785.5,3779.3,3783.5,3790.5,N/A,N/A,N/A,N/A,N/A,N/A,0,0,0,26,26,26,26,OC,OC,OC,OC,OC,OC,OC,OC,26,25,28,28,28,28,OC,OC,OC,OC,OC,OC,OC,OC,27,26,28,28,28,28,OC,OC,OC,OC,OC,OC,OC,OC,25,25,0,0,,,,,,
2021-10-13 13:51:59,GOOD,0d 0h 59m 21s,ACTIVE,514,0,135.7,-89.9,3784.8,3759.8,28,26,OC,OC,OC,OC,OC,OC,OC,OC,427.9,635.3,90,FALSE,-81261,115.6,100,,,,,,,,,3766.4,3766.3,3761.7,3758,3760.7,3759.4,3762.4,3764.6,3763.7,3757.9,3762.2,3769,N/A,N/A,N/A,N/A,N/A,N/A,3773.7,3773.7,3776.4,3773.6,3766.8,3767,3771.3,3772.9,3772,3770.6,3768.5,3776.1,N/A,N/A,N/A,N/A,N/A,N/A,3779.8,3775.3,3773,3773,3774.3,3776.6,3773.2,3775,3776.7,3769.8,3773.3,3780.7,N/A,N/A,N/A,N/A,N/A,N/A,0,0,0,26,26,26,26,OC,OC,OC,OC,OC,OC,OC,OC,26,25,28,28,28,28,OC,OC,OC,OC,OC,OC,OC,OC,27,26,28,28,28,28,OC,OC,OC,OC,OC,OC,OC,OC,25,25,0,0,,,,,,
2021-10-13 13:52:29,GOOD,0d 0h 59m 51s,ACTIVE,514,0,135.5,-91,3781.9,3752.4,28,26,OC,OC,OC,OC,OC,OC,OC,OC,427.9,635.3,90,FALSE,-83954,115.6,100,,,,,,,,,3765.6,3764.4,3759.1,3753.2,3753.7,3752.8,3761.9,3762.2,3761.4,3753.3,3756.1,3763.1,N/A,N/A,N/A,N/A,N/A,N/A,3768.8,3765.5,3765.3,3762.4,3755.9,3756.3,3766.1,3765.8,3760.8,3758.4,3756.3,3764.8,N/A,N/A,N/A,N/A,N/A,N/A,3780.6,3774.9,3771,3766.3,3765.5,3766.9,3773.9,3775.4,3775.7,3764.6,3765.8,3773.6,N/A,N/A,N/A,N/A,N/A,N/A,0,0,0,26,26,26,26,OC,OC,OC,OC,OC,OC,OC,OC,26,25,28,28,28,28,OC,OC,OC,OC,OC,OC,OC,OC,27,27,28,28,28,28,OC,OC,OC,OC,OC,OC,OC,OC,25,25,0,0,,,,,,
2021-10-13 13:52:59,GOOD,0d 1h 0m 21s,ACTIVE,514,0,135.3,-90.7,3770.4,3750,29,26,OC,OC,OC,OC,OC,OC,OC,OC,427.9,635.3,90,FALSE,-86661,115.6,100,,,,,,,,,3749.4,3749.5,3745.4,3742.9,3747.1,3745.3,3745.4,3747.4,3747.7,3742.8,3749.3,3755,N/A,N/A,N/A,N/A,N/A,N/A,3751.7,3750.7,3752.5,3756.6,3752.9,3754.8,3748.8,3750.9,3748.7,3752.3,3754.2,3762.3,N/A,N/A,N/A,N/A,N/A,N/A,3768.1,3764.8,3763.7,3766.4,3767,3766.9,3761.9,3764.9,3768.5,3763.8,3767.8,3772.2,N/A,N/A,N/A,N/A,N/A,N/A,0,0,0,26,26,26,26,OC,OC,OC,OC,OC,OC,OC,OC,26,25,28,28,28,28,OC,OC,OC,OC,OC,OC,OC,OC,27,27,28,28,29,28,OC,OC,OC,OC,OC,OC,OC,OC,25,25,0,0,,,,,,
2021-10-13 13:53:29,GOOD,0d 1h 0m 51s,ACTIVE,514,0,134.8,-89.7,3760.2,3734.8,29,26,OC,OC,OC,OC,OC,OC,OC,OC,427.9,635.3,90,FALSE,-89500,115.6,100,,,,,,,,,3741.3,3741.5,3737.8,3735.2,3739.6,3737.8,3737.4,3739,3739.3,3734.6,3740.9,3746.6,N/A,N/A,N/A,N/A,N/A,N/A,3754,3753.9,3753.6,3750.6,3743.9,3744.2,3751.4,3753.2,3750.9,3747.3,3745.1,3753.2,N/A,N/A,N/A,N/A,N/A,N/A,3759.5,3755.9,3754.4,3756.3,3758.2,3760.9,3753.2,3754.9,3757.9,3752.5,3757.6,3763.6,N/A,N/A,N/A,N/A,N/A,N/A,0,0,0,26,26,26,26,OC,OC,OC,OC,OC,OC,OC,OC,26,25,29,28,28,28,OC,OC,OC,OC,OC,OC,OC,OC,27,27,28,28,29,28,OC,OC,OC,OC,OC,OC,OC,OC,25,25,0,0,,,,,,
2021-10-13 13:54:00,GOOD,0d 1h 1m 21s,ACTIVE,514,0,134.6,-89.1,3751.5,3727.7,29,26,OC,OC,OC,OC,OC,OC,OC,OC,427.9,635.3,90,FALSE,-92203,115.6,100,,,,,,,,,3740.8,3740.7,3740.8,3737.3,3738.9,3736.6,3737.8,3737.7,3742.8,3737.3,3741.7,3746.4,N/A,N/A,N/A,N/A,N/A,N/A,3737.3,3736.3,3737.9,3741.6,3737.9,3739.9,3734.5,3736.2,3733.5,3736.5,3737.9,3746.2,N/A,N/A,N/A,N/A,N/A,N/A,3760.3,3754.6,3750.8,3745.7,3744.7,3745.9,3753.6,3755.5,3755.8,3744.4,3745.3,3752.6,N/A,N/A,N/A,N/A,N/A,N/A,0,0,0,26,26,26,26,OC,OC,OC,OC,OC,OC,OC,OC,26,25,29,28,29,29,OC,OC,OC,OC,OC,OC,OC,OC,27,27,28,28,29,29,OC,OC,OC,OC,OC,OC,OC,OC,25,25,0,0,,,,,,
2021-10-13 13:54:30,GOOD,0d 1h 1m 51s,ACTIVE,514,0,134.5,-91.4,3753.1,3723.9,29,26,OC,OC,OC,OC,OC,OC,OC,OC,427.9,635.3,90,FALSE,-94898,115.6,100,,,,,,,,,3734.6,3734.4,3734.7,3730.1,3731.3,3729.3,3731.6,3732.3,3737.9,3729.9,3733.2,3738.7,N/A,N/A,N/A,N/A,N/A,N/A,3739.1,3739.4,3739.2,3736.2,3729.6,3729.8,3736.7,3739.1,3735.2,3732.1,3730,3738.1,N/A,N/A,N/A,N/A,N/A,N/A,3754.3,3748.4,3744.6,3739.5,3738.1,3739.1,3748.2,3748.4,3748.9,3737.4,3738,3745.4,N/A,N/A,N/A,N/A,N/A,N/A,0,0,0,27,26,26,27,OC,OC,OC,OC,OC,OC,OC,OC,26,25,29,29,29,29,OC,OC,OC,OC,OC,OC,OC,OC,27,27,29,29,29,29,OC,OC,OC,OC,OC,OC,OC,OC,25,25,0,0,,,,,,
2021-10-13 13:55:00,GOOD,0d 1h 2m 23s,ACTIVE,514,0,134.3,-91.1,3742.4,3721.3,29,26,OC,OC,OC,OC,OC,OC,OC,OC,427.9,635.3,90,FALSE,-97597,115.6,100,,,,,,,,,3731.3,3729.2,3724.6,3718.4,3719.1,3717.9,3728.4,3727,3727,3718.4,3721.3,3727.8,N/A,N/A,N/A,N/A,N/A,N/A,3724.4,3722.3,3722.8,3723.8,3719.2,3720.6,3721.3,3723.1,3719.1,3719.9,3719.8,3728.9,N/A,N/A,N/A,N/A,N/A,N/A,3742.3,3736.8,3733.3,3729.7,3729.2,3730.7,3735.5,3737.6,3737.9,3728.1,3729.7,3737.1,N/A,N/A,N/A,N/A,N/A,N/A,0,0,0,27,26,27,27,OC,OC,OC,OC,OC,OC,OC,OC,26,25,29,29,29,29,OC,OC,OC,OC,OC,OC,OC,OC,27,27,29,29,29,29,OC,OC,OC,OC,OC,OC,OC,OC,25,25,0,0,,,,,,
2021-10-13 13:55:30,GOOD,0d 1h 2m 53s,ACTIVE,514,0,133.8,-90.1,3730.3,3705.7,29,27,OC,OC,OC,OC,OC,OC,OC,OC,433.7,638.8,90,FALSE,-100327,115.6,100,,,,,,,,,3719.7,3719.7,3720,3715.1,3716.5,3714.3,3716.8,3716.1,3721.7,3715.5,3719.7,3724.5,N/A,N/A,N/A,N/A,N/A,N/A,3717.4,3716.8,3718.5,3723.6,3720.4,3722,3714.6,3716.1,3714.3,3718.3,3720.4,3728.3,N/A,N/A,N/A,N/A,N/A,N/A,3739.1,3736.2,3732.2,3726.9,3725.5,3726.5,3733.1,3735.6,3737.7,3725.5,3726.4,3733.2,N/A,N/A,N/A,N/A,N/A,N/A,0,0,0,27,27,27,27,OC,OC,OC,OC,OC,OC,OC,OC,26,25,29,29,29,29,OC,OC,OC,OC,OC,OC,OC,OC,27,27,29,29,29,29,OC,OC,OC,OC,OC,OC,OC,OC,25,25,0,0,,,,,,
2021-10-13 13:56:00,GOOD,0d 1h 3m 23s,ACTIVE,514,0,133.7,-89.5,3727.8,3703.5,29,27,OC,OC,OC,OC,OC,OC,OC,OC,433.7,638.8,90,FALSE,-103020,115.6,100,,,,,,,,,3705.7,3706.1,3703.1,3701.2,3706.2,3704.1,3702.2,3704.2,3705.8,3701.4,3709,3713.5,N/A,N/A,N/A,N/A,N/A,N/A,3711.8,3709.3,3709.4,3709.4,3704.3,3705.4,3708.5,3709.6,3705.5,3705.8,3705.2,3714,N/A,N/A,N/A,N/A,N/A,N/A,3723.3,3718.7,3716,3714.9,3715.4,3717.5,3717,3719.1,3720.2,3713,3716.2,3723.2,N/A,N/A,N/A,N/A,N/A,N/A,0,0,0,27,27,27,27,OC,OC,OC,OC,OC,OC,OC,OC,26,25,29,29,29,29,OC,OC,OC,OC,OC,OC,OC,OC,27,27,29,29,29,29,OC,OC,OC,OC,OC,OC,OC,OC,25,25,0,0,,,,,,
2021-10-13 13:56:30,GOOD,0d 1h 3m 53s,ACTIVE,514,0,133.3,-89.2,3716.3,3692.8,29,27,OC,OC,OC,OC,OC,OC,OC,OC,433.7,638.8,90,FALSE,-105843,115.6,100,,,,,,,,,3700.3,3700.7,3698.7,3697,3703.3,3700.6,3697,3698,3700.6,3696.5,3705.1,3708.7,N/A,N/A,N/A,N/A,N/A,N/A,3701.8,3700.5,3701.3,3704,3700,3701.8,3698.7,3700,3697,3699.4,3700.2,3708.8,N/A,N/A,N/A,N/A,N/A,N/A,3718.5,3715.2,3714,3716.5,3718.4,3720.2,3712.3,3715.3,3718.5,3714,3719.7,3724,N/A,N/A,N/A,N/A,N/A,N/A,0,0,0,27,27,27,27,OC,OC,OC,OC,OC,OC,OC,OC,26,25,29,29,29,29,OC,OC,OC,OC,OC,OC,OC,OC,27,27,29,29,29,29,OC,OC,OC,OC,OC,OC,OC,OC,25,25,0,0,,,,,,
2021-10-13 13:57:00,GOOD,0d 1h 4m 23s,ACTIVE,514,0,133.1,-90.2,3713.3,3687.2,29,27,OC,OC,OC,OC,OC,OC,OC,OC,433.7,638.8,90,FALSE,-108530,115.6,100,,,,,,,,,3697.4,3697.7,3697.4,3696.2,3699.5,3696.4,3694.8,3694.5,3698.9,3694.8,3704.2,3706,N/A,N/A,N/A,N/A,N/A,N/A,3695.5,3694.4,3695.5,3699.1,3695.4,3697.3,3692.6,3694,3691.4,3694.2,3695.3,3703.6,N/A,N/A,N/A,N/A,N/A,N/A,3710.1,3705.4,3702.5,3700.8,3701,3703,3703.5,3705.9,3706.6,3698.8,3701.3,3708.3,N/A,N/A,N/A,N/A,N/A,N/A,0,0,0,27,27,27,27,OC,OC,OC,OC,OC,OC,OC,OC,26,25,29,29,29,29,OC,OC,OC,OC,OC,OC,OC,OC,27,27,29,29,29,29,OC,OC,OC,OC,OC,OC,OC,OC,25,25,0,0,,,,,,
2021-10-13 13:57:30,GOOD,0d 1h 4m 51s,ACTIVE,514,0,132.8,-89.8,3703,3678.9,29,27,OC,OC,OC,OC,OC,OC,OC,OC,433.7,638.8,90,FALSE,-111219,115.6,100,,,,,,,,,3685.2,3685.8,3682.6,3680.4,3685.3,3683.3,3681.8,3683.7,3684.8,3680.4,3687.6,3692.3,N/A,N/A,N/A,N/A,N/A,N/A,3695.1,3695.1,3697.3,3697.2,3690.7,3690.9,3692.3,3694.2,3693.5,3693.2,3691.1,3698.7,N/A,N/A,N/A,N/A,N/A,N/A,3703.2,3699.9,3698.6,3700.9,3702.7,3705.5,3697.1,3700,3702.7,3697.9,3703.4,3708.4,N/A,N/A,N/A,N/A,N/A,N/A,0,0,0,27,27,27,27,OC,OC,OC,OC,OC,OC,OC,OC,26,25,29,29,29,29,OC,OC,OC,OC,OC,OC,OC,OC,27,27,29,29,29,29,OC,OC,OC,OC,OC,OC,OC,OC,25,25,0,0,,,,,,
2021-10-13 13:58:01,GOOD,0d 1h 5m 23s,ACTIVE,514,0,132.6,-88.8,3695.7,3673.4,29,27,OC,OC,OC,OC,OC,OC,OC,OC,433.7,638.8,90,FALSE,-113911,115.6,100,,,,,,,,,3680.3,3680.7,3676.1,3672.9,3675.8,3674.5,3676.8,3679.6,3678.7,3673.5,3677.8,3684.4,N/A,N/A,N/A,N/A,N/A,N/A,3692.5,3689.8,3689,3686.4,3680.2,3680.6,3689.9,3690.7,3686,3683.3,3681,3689,N/A,N/A,N/A,N/A,N/A,N/A,3695.3,3691.7,3689.8,3691,3692.1,3694.6,3689.2,3691.6,3693.7,3688.1,3692.4,3698.4,N/A,N/A,N/A,N/A,N/A,N/A,0,0,0,27,27,27,27,OC,OC,OC,OC,OC,OC,OC,OC,26,25,29,29,29,29,OC,OC,OC,OC,OC,OC,OC,OC,27,27,29,29,29,29,OC,OC,OC,OC,OC,OC,OC,OC,25,25,0,0,,,,,,
2021-10-13 13:58:31,GOOD,0d 1h 5m 53s,ACTIVE,514,0,132.4,-88.9,3690.2,3667.9,30,27,OC,OC,OC,OC,OC,OC,OC,OC,433.7,638.8,90,FALSE,-116576,115.6,100,,,,,,,,,3672.4,3673,3669.7,3667.7,3672.5,3670.3,3669.2,3671,3671.8,3667.4,3674.6,3679.1,N/A,N/A,N/A,N/A,N/A,N/A,3676.3,3674.5,3674.9,3676.7,3672.6,3674.1,3673.3,3674.8,3671.5,3672.9,3673.3,3681.9,N/A,N/A,N/A,N/A,N/A,N/A,3689.1,3685,3682.6,3682.3,3683,3685.1,3682.9,3684.8,3686,3679.7,3683.3,3689.6,N/A,N/A,N/A,N/A,N/A,N/A,0,0,0,27,27,27,27,OC,OC,OC,OC,OC,OC,OC,OC,26,25,30,29,29,29,OC,OC,OC,OC,OC,OC,OC,OC,27,27,29,29,30,29,OC,OC,OC,OC,OC,OC,OC,OC,25,25,0,0,,,,,,
2021-10-13 13:59:01,GOOD,0d 1h 6m 23s,ACTIVE,514,0,132.2,-89.1,3686.3,3663.6,30,27,OC,OC,OC,OC,OC,OC,OC,OC,433.7,638.8,90,FALSE,-119423,115.6,100,,,,,,,,,3671.1,3671.6,3671.6,3670.2,3672.9,3670,3668.8,3669,3673.8,3669.7,3675.6,3679.2,N/A,N/A,N/A,N/A,N/A,N/A,3670.5,3669.9,3671.5,3676.3,3673.2,3675.4,3667.7,3669.6,3668,3671.9,3673.8,3681.4,N/A,N/A,N/A,N/A,N/A,N/A,3692,3689.6,3685.7,3680.5,3678.8,3679.6,3686.5,3688.9,3690.9,3678.9,3679.6,3685.7,N/A,N/A,N/A,N/A,N/A,N/A,0,0,0,27,27,27,27,OC,OC,OC,OC,OC,OC,OC,OC,26,25,30,29,30,30,OC,OC,OC,OC,OC,OC,OC,OC,27,27,29,29,30,30,OC,OC,OC,OC,OC,OC,OC,OC,25,25,0,0,,,,,,
2021-10-13 13:59:31,GOOD,0d 1h 6m 53s,ACTIVE,514,0,131.9,-88.6,3678.3,3656.2,30,27,OC,OC,OC,OC,OC,OC,OC,OC,433.7,638.8,90,FALSE,-122118,115.6,100,,,,,,,,,3671.1,3669.5,3665,3658.9,3659.5,3658.4,3668.3,3667.7,3667.5,3659.4,3662,3668.3,N/A,N/A,N/A,N/A,N/A,N/A,3670.6,3670.8,3672.8,3670.6,3664.1,3664.4,3667.8,3669.4,3668.9,3667.3,3665.3,3672.4,N/A,N/A,N/A,N/A,N/A,N/A,3677.7,3674.9,3673.7,3676.2,3678,3680,3672.1,3674.8,3677.6,3673.2,3678.7,3683.2,N/A,N/A,N/A,N/A,N/A,N/A,0,0,0,27,27,27,27,OC,OC,OC,OC,OC,OC,OC,OC,26,25,30,29,30,30,OC,OC,OC,OC,OC,OC,OC,OC,27,27,29,29,30,30,OC,OC,OC,OC,OC,OC,OC,OC,25,25,0,0,,,,,,
2021-10-13 14:00:01,GOOD,0d 1h 7m 23s,ACTIVE,514,0,131.9,-91.5,3677.9,3653.7,30,27,OC,OC,OC,OC,OC,OC,OC,OC,433.7,638.8,90,FALSE,-124807,115.6,100,,,,,,,,,3664.9,3663.2,3658.5,3652.4,3653.1,3652,3662.6,3661.1,3661,3652.9,3655.5,3661.6,N/A,N/A,N/A,N/A,N/A,N/A,3660.3,3658,3657.6,3657.7,3652.6,3653.7,3657.2,3658.2,3653.8,3653.7,3652.7,3661.2,N/A,N/A,N/A,N/A,N/A,N/A,3676.2,3671.4,3667.8,3663.7,3662.8,3664.1,3670.3,3671.8,3671.5,3661.8,3662.8,3669.5,N/A,N/A,N/A,N/A,N/A,N/A,0,0,0,27,27,27,27,OC,OC,OC,OC,OC,OC,OC,OC,26,25,30,30,30,30,OC,OC,OC,OC,OC,OC,OC,OC,27,27,30,29,30,30,OC,OC,OC,OC,OC,OC,OC,OC,25,25,0,0,,,,,,
2021-10-13 14:00:31,GOOD,0d 1h 7m 53s,ACTIVE,514,0,131.6,-89.8,3669.6,3646.5,30,27,OC,OC,OC,OC,OC,OC,OC,OC,433.7,638.8,90,FALSE,-127512,115.6,100,,,,,,,,,3655,3654.8,3649.8,3644.9,3646.3,3645.1,3652.1,3652.9,3651.9,3644.9,3647.9,3654.3,N/A,N/A,N/A,N/A,N/A,N/A,3657.7,3658,3660,3658.1,3652,3652.1,3654.9,3656.2,3655.8,3655.3,3653.2,3660.1,N/A,N/A,N/A,N/A,N/A,N/A,3665.8,3661.5,3658.6,3656.6,3656.3,3658.2,3660,3661.7,3661.9,3654.3,3656.3,3662.8,N/A,N/A,N/A,N/A,N/A,N/A,0,0,0,27,27,27,27,OC,OC,OC,OC,OC,OC,OC,OC,26,25,30,30,30,30,OC,OC,OC,OC,OC,OC,OC,OC,28,27,30,30,30,30,OC,OC,OC,OC,OC,OC,OC,OC,25,25,0,0,,,,,,
2021-10-13 14:01:01,GOOD,0d 1h 8m 24s,ACTIVE,514,0,131.3,-88.9,3658.6,3637.6,30,27,OC,OC,OC,OC,OC,OC,OC,OC,433.7,638.8,90,FALSE,-130201,115.6,100,,,,,,,,,3651.3,3650.9,3646.3,3640.6,3641.8,3640.6,3648.7,3649.9,3649.4,3641.6,3644.1,3650.2,N/A,N/A,N/A,N/A,N/A,N/A,3647,3646.6,3647.9,3652.6,3649.9,3652,3644.2,3645.6,3643.8,3647.6,3649.3,3656.6,N/A,N/A,N/A,N/A,N/A,N/A,3659.6,3655.5,3652.7,3650.4,3650.1,3651.9,3653.9,3656.2,3656.4,3648.5,3650.2,3656.6,N/A,N/A,N/A,N/A,N/A,N/A,0,0,0,27,27,27,27,OC,OC,OC,OC,OC,OC,OC,OC,26,25,30,30,30,30,OC,OC,OC,OC,OC,OC,OC,OC,28,27,30,30,30,30,OC,OC,OC,OC,OC,OC,OC,OC,25,25,0,0,,,,,,
2021-10-13 14:01:31,GOOD,0d 1h 8m 54s,ACTIVE,514,0,131.2,-89.7,3657.7,3635.7,30,27,OC,OC,OC,OC,OC,OC,OC,OC,433.7,638.8,90,FALSE,-132877,115.6,100,,,,,,,,,3638.7,3639.5,3635,3631.6,3634.2,3632.8,3636,3637.7,3636.9,3631.6,3635.8,3641.7,N/A,N/A,N/A,N/A,N/A,N/A,3639.3,3638.2,3638.3,3641,3637.3,3638.9,3636.4,3638.4,3635,3636.5,3636.5,3644.6,N/A,N/A,N/A,N/A,N/A,N/A,3656.4,3652,3648.6,3645.6,3644.9,3646.3,3650.8,3654.2,3654,3644.4,3645.2,3651.5,N/A,N/A,N/A,N/A,N/A,N/A,0,0,0,28,27,27,28,OC,OC,OC,OC,OC,OC,OC,OC,26,26,30,30,30,30,OC,OC,OC,OC,OC,OC,OC,OC,28,27,30,30,30,30,OC,OC,OC,OC,OC,OC,OC,OC,25,25,0,0,,,,,,
2021-10-13 14:02:02,GOOD,0d 1h 9m 24s,ACTIVE,514,0,130.8,-88.9,3646.3,3626,30,27,OC,OC,OC,OC,OC,OC,OC,OC,433.7,638.8,90,FALSE,-135566,115.6,100,,,,,,,,,3638.9,3639.5,3640.6,3634.3,3635.8,3633.6,3637.1,3636.1,3641.7,3635.4,3639.3,3643.2,N/A,N/A,N/A,N/A,N/A,N/A,3634.2,3633,3633,3634.9,3631.2,3632.6,3631.4,3632.5,3628.9,3630.3,3630.1,3638.3,N/A,N/A,N/A,N/A,N/A,N/A,3652.2,3650.5,3650.1,3645.5,3643.6,3644.2,3647.3,3650.3,3654.1,3643.3,3644.1,3648.9,N/A,N/A,N/A,N/A,N/A,N/A,0,0,0,28,27,28,28,OC,OC,OC,OC,OC,OC,OC,OC,26,26,30,30,30,30,OC,OC,OC,OC,OC,OC,OC,OC,28,27,30,30,30,30,OC,OC,OC,OC,OC,OC,OC,OC,25,25,0,0,,,,,,
2021-10-13 14:02:32,GOOD,0d 1h 9m 54s,ACTIVE,514,0,130.7,-91,3645.5,3621.9,30,27,OC,OC,OC,OC,OC,OC,OC,OC,433.7,638.8,90,FALSE,-138405,115.6,100,,,,,,,,,3625.3,3626.5,3625,3623.5,3630,3627.1,3623.2,3624.7,3626.6,3622.8,3630.9,3634.2,N/A,N/A,N/A,N/A,N/A,N/A,3629.3,3628.8,3629.4,3633.3,3630.2,3632.2,3626.3,3628.1,3625.7,3628.5,3629.6,3637,N/A,N/A,N/A,N/A,N/A,N/A,3646.3,3642,3638.6,3635.1,3634.1,3635.4,3641.1,3644.1,3643.5,3634.4,3635.1,3641.1,N/A,N/A,N/A,N/A,N/A,N/A,0,0,0,28,27,28,28,OC,OC,OC,OC,OC,OC,OC,OC,26,26,30,30,30,30,OC,OC,OC,OC,OC,OC,OC,OC,28,27,30,30,30,30,OC,OC,OC,OC,OC,OC,OC,OC,25,25,0,0,,,,,,
2021-10-13 14:03:02,GOOD,0d 1h 10m 24s,ACTIVE,514,0,130.5,-89.8,3636.2,3615.4,30,28,OC,OC,OC,OC,OC,OC,OC,OC,439.5,642.4,90,FALSE,-141109,115.6,100,,,,,,,,,3631.3,3630.3,3626.2,3619.9,3621.1,3619.9,3629.6,3629,3629.7,3621.3,3623.9,3629.3,N/A,N/A,N/A,N/A,N/A,N/A,3624.1,3623.7,3624.7,3629,3626.5,3628.5,3621.3,3622.1,3620.2,3623.8,3625.1,3632.3,N/A,N/A,N/A,N/A,N/A,N/A,3635,3631.8,3629.6,3629.6,3630.1,3632.2,3629.9,3632,3632.8,3627.6,3630.7,3636,N/A,N/A,N/A,N/A,N/A,N/A,0,0,0,28,28,28,28,OC,OC,OC,OC,OC,OC,OC,OC,26,26,30,30,30,30,OC,OC,OC,OC,OC,OC,OC,OC,28,27,30,30,30,30,OC,OC,OC,OC,OC,OC,OC,OC,25,25,0,0,,,,,,
2021-10-13 14:03:33,GOOD,0d 1h 10m 54s,ACTIVE,514,0,130.4,-89.7,3635.3,3615,30,28,OC,OC,OC,OC,OC,OC,OC,OC,439.5,642.4,90,FALSE,-143920,115.6,100,,,,,,,,,3616.5,3617.7,3613.8,3610.7,3614.3,3612.7,3614.4,3617.2,3616.3,3611,3615.1,3620.7,N/A,N/A,N/A,N/A,N/A,N/A,3623.2,3623.6,3625.1,3628.2,3622.5,3622.5,3620.5,3620.5,3619.4,3624,3626.1,3630.8,N/A,N/A,N/A,N/A,N/A,N/A,3636,3632.1,3628.6,3624.4,3623.3,3624.5,3631.2,3634.1,3633.6,3624.1,3624.5,3630.3,N/A,N/A,N/A,N/A,N/A,N/A,0,0,0,28,28,28,28,OC,OC,OC,OC,OC,OC,OC,OC,26,26,30,30,30,30,OC,OC,OC,OC,OC,OC,OC,OC,28,27,30,30,30,30,OC,OC,OC,OC,OC,OC,OC,OC,25,25,0,0,,,,,,
2021-10-13 14:04:03,GOOD,0d 1h 11m 24s,ACTIVE,514,0,130.2,-89.2,3628.3,3608.9,30,28,OC,OC,OC,OC,OC,OC,OC,OC,439.5,642.4,90,FALSE,-146611,115.6,100,,,,,,,,,3617.9,3619,3620.2,3614.1,3615.8,3613.5,3616.8,3615.6,3621.4,3614.5,3618.3,3622,N/A,N/A,N/A,N/A,N/A,N/A,3614.7,3614.9,3615.9,3621.2,3618.9,3621.2,3612.2,3614.3,3612.8,3617.1,3619.1,3625.5,N/A,N/A,N/A,N/A,N/A,N/A,3632.4,3628.5,3624.9,3620.6,3619.5,3620.4,3627.6,3629.4,3628.9,3619.6,3620.2,3625.6,N/A,N/A,N/A,N/A,N/A,N/A,0,0,0,28,28,28,28,OC,OC,OC,OC,OC,OC,OC,OC,26,26,30,30,30,30,OC,OC,OC,OC,OC,OC,OC,OC,28,27,30,30,30,30,OC,OC,OC,OC,OC,OC,OC,OC,25,25,0,0,,,,,,
2021-10-13 14:04:33,GOOD,0d 1h 11m 56s,ACTIVE,514,0,130.1,-90,3625.4,3605.4,30,28,OC,OC,OC,OC,OC,OC,OC,OC,439.5,642.4,90,FALSE,-149273,115.6,100,,,,,,,,,3614.8,3615.1,3610.6,3605.1,3606.7,3605.3,3613.3,3613.9,3613.3,3605.7,3608.4,3613.8,N/A,N/A,N/A,N/A,N/A,N/A,3610.4,3610.7,3611.5,3616.7,3614.4,3616.4,3607.9,3610,3608.5,3612.8,3614.8,3620.8,N/A,N/A,N/A,N/A,N/A,N/A,3619.4,3616.4,3613.8,3613.1,3613.1,3614.8,3614.6,3616.4,3616.4,3610.6,3612.6,3618,N/A,N/A,N/A,N/A,N/A,N/A,0,0,0,28,28,28,28,OC,OC,OC,OC,OC,OC,OC,OC,26,26,30,30,30,30,OC,OC,OC,OC,OC,OC,OC,OC,28,27,30,30,30,30,OC,OC,OC,OC,OC,OC,OC,OC,26,25,0,0,,,,,,
2021-10-13 14:05:03,GOOD,0d 1h 12m 26s,ACTIVE,514,0,129.8,-89.4,3613.9,3596.4,30,28,OC,OC,OC,OC,OC,OC,OC,OC,439.5,642.4,90,FALSE,-151976,115.6,100,,,,,,,,,3605,3606.3,3606.8,3605.4,3612.2,3607.3,3604,3603.4,3607.7,3604.2,3614.7,3614.7,N/A,N/A,N/A,N/A,N/A,N/A,3613,3611,3609.6,3607.9,3602.8,3603.4,3609.9,3610.6,3606.2,3604.5,3602.6,3609.4,N/A,N/A,N/A,N/A,N/A,N/A,3622.2,3621.3,3620.6,3615.2,3613.4,3613.7,3618.3,3619.9,3623.4,3613.8,3614.3,3618.4,N/A,N/A,N/A,N/A,N/A,N/A,0,0,0,28,28,28,28,OC,OC,OC,OC,OC,OC,OC,OC,26,26,30,30,30,30,OC,OC,OC,OC,OC,OC,OC,OC,28,27,30,30,30,30,OC,OC,OC,OC,OC,OC,OC,OC,26,25,0,0,,,,,,
2021-10-13 14:05:33,GOOD,0d 1h 12m 56s,ACTIVE,514,0,129.6,-89.1,3609.4,3592,31,28,OC,OC,OC,OC,OC,OC,OC,OC,439.5,642.4,90,FALSE,-154801,115.6,100,,,,,,,,,3608.2,3607.3,3603.3,3597.2,3598.4,3597,3607.3,3605.4,3605.1,3597.2,3599.8,3604.9,N/A,N/A,N/A,N/A,N/A,N/A,3603.2,3603.9,3605,3610.8,3606.8,3606.2,3600.6,3601.7,3600.6,3605.5,3607.8,3611.8,N/A,N/A,N/A,N/A,N/A,N/A,3609,3607.1,3605.5,3607,3608,3609.9,3604.8,3606.4,3607.6,3603.9,3607.6,3611.8,N/A,N/A,N/A,N/A,N/A,N/A,0,0,0,28,28,28,28,OC,OC,OC,OC,OC,OC,OC,OC,26,26,30,30,30,30,OC,OC,OC,OC,OC,OC,OC,OC,28,27,30,30,31,30,OC,OC,OC,OC,OC,OC,OC,OC,26,25,0,0,,,,,,
2021-10-13 14:06:04,GOOD,0d 1h 13m 26s,ACTIVE,514,0,129.6,-90.9,3611.3,3590.2,31,28,OC,OC,OC,OC,OC,OC,OC,OC,439.5,642.4,90,FALSE,-157503,115.6,100,,,,,,,,,3599.8,3600.3,3596,3590.7,3592.6,3591.2,3598.4,3598.8,3597.6,3590.9,3594,3599.3,N/A,N/A,N/A,N/A,N/A,N/A,3605.2,3605.8,3603.8,3601.6,3596.2,3596.4,3602.9,3604.4,3600.1,3597.6,3595.5,3601.7,N/A,N/A,N/A,N/A,N/A,N/A,3613.5,3610.2,3606.8,3602.3,3601,3601.7,3609.5,3610,3609.3,3600.6,3601,3605.9,N/A,N/A,N/A,N/A,N/A,N/A,0,0,0,28,28,28,28,OC,OC,OC,OC,OC,OC,OC,OC,26,26,30,30,30,30,OC,OC,OC,OC,OC,OC,OC,OC,28,28,30,30,31,30,OC,OC,OC,OC,OC,OC,OC,OC,26,25,0,0,,,,,,
2021-10-13 14:06:34,GOOD,0d 1h 13m 56s,ACTIVE,514,0,129.5,-91.4,3609.8,3588.8,31,28,OC,OC,OC,OC,OC,OC,OC,OC,439.5,642.4,90,FALSE,-160175,115.6,100,,,,,,,,,3598.4,3599.6,3597.2,3590,3591.6,3589.7,3598.1,3596.9,3599.7,3590.3,3593,3597.6,N/A,N/A,N/A,N/A,N/A,N/A,3599.8,3601.1,3600.6,3597.7,3592.3,3592.3,3597.5,3599.5,3597.6,3594.5,3592.3,3597.9,N/A,N/A,N/A,N/A,N/A,N/A,3609.7,3606.4,3602.9,3598.5,3597,3597.6,3605.6,3606.5,3605.5,3596.9,3597.1,3602,N/A,N/A,N/A,N/A,N/A,N/A,0,0,0,28,28,28,28,OC,OC,OC,OC,OC,OC,OC,OC,26,26,31,30,31,30,OC,OC,OC,OC,OC,OC,OC,OC,28,28,30,30,31,30,OC,OC,OC,OC,OC,OC,OC,OC,26,25,0,0,,,,,,
2021-10-13 14:07:04,GOOD,0d 1h 14m 27s,ACTIVE,514,0,129.2,-91,3601.9,3581.7,31,28,OC,OC,OC,OC,OC,OC,OC,OC,439.5,642.4,90,FALSE,-162866,115.6,100,,,,,,,,,3584.2,3586.2,3583.3,3580.9,3586.1,3583.8,3583,3584.4,3584.6,3580.9,3587.5,3591,N/A,N/A,N/A,N/A,N/A,N/A,3587.1,3587.5,3587.6,3591.9,3589.8,3591.4,3584.4,3586.4,3584.5,3588.5,3590.1,3595.9,N/A,N/A,N/A,N/A,N/A,N/A,3599.3,3598.5,3597.9,3601.3,3599.4,3599.4,3595.7,3598.8,3601.7,3598.4,3599,3601.8,N/A,N/A,N/A,N/A,N/A,N/A,0,0,0,28,28,28,28,OC,OC,OC,OC,OC,OC,OC,OC,26,26,31,30,31,31,OC,OC,OC,OC,OC,OC,OC,OC,28,28,30,30,31,31,OC,OC,OC,OC,OC,OC,OC,OC,26,25,0,0,,,,,,
2021-10-13 14:07:34,GOOD,0d 1h 14m 57s,ACTIVE,514,0,129.3,-90.6,3598.1,3584,31,28,OC,OC,OC,OC,OC,OC,OC,OC,439.5,642.4,90,FALSE,-165567,115.6,100,,,,,,,,,3584.9,3586.7,3587.3,3585.7,3589.6,3586.3,3584.5,3584.3,3588.9,3585.3,3590.9,3593,N/A,N/A,N/A,N/A,N/A,N/A,3586.8,3587.8,3588.7,3594.3,3588.9,3588.8,3584.3,3586.9,3585.9,3590.7,3588.8,3593.3,N/A,N/A,N/A,N/A,N/A,N/A,3594.8,3594.1,3593.3,3596.6,3597.6,3596.9,3591.5,3593.7,3596.1,3594,3598.4,3599.6,N/A,N/A,N/A,N/A,N/A,N/A,0,0,0,28,28,28,28,OC,OC,OC,OC,OC,OC,OC,OC,26,26,31,30,31,31,OC,OC,OC,OC,OC,OC,OC,OC,28,28,30,30,31,31,OC,OC,OC,OC,OC,OC,OC,OC,26,25,0,0,,,,,,
2021-10-13 14:08:04,GOOD,0d 1h 15m 27s,ACTIVE,514,0,129,-89.5,3592.2,3575.7,31,28,OC,OC,OC,OC,OC,OC,OC,OC,439.5,642.4,90,FALSE,-168295,115.6,100,,,,,,,,,3577.6,3579.4,3576.1,3573,3577,3575.2,3576.4,3577.5,3576.9,3572.3,3577.6,3581.8,N/A,N/A,N/A,N/A,N/A,N/A,3578.6,3578.4,3577.9,3580.6,3577.8,3579.2,3575.9,3578.1,3575.1,3577.9,3578.5,3584.5,N/A,N/A,N/A,N/A,N/A,N/A,3591.5,3588.9,3585.8,3583.1,3582.5,3583.5,3587.9,3589.1,3588.4,3582,3583.2,3588,N/A,N/A,N/A,N/A,N/A,N/A,0,0,0,28,28,28,28,OC,OC,OC,OC,OC,OC,OC,OC,26,26,31,30,31,31,OC,OC,OC,OC,OC,OC,OC,OC,28,28,30,30,31,31,OC,OC,OC,OC,OC,OC,OC,OC,26,25,0,0,,,,,,
2021-10-13 14:08:34,GOOD,0d 1h 15m 57s,ACTIVE,514,0,129,-91,3591.3,3577.4,31,28,OC,OC,OC,OC,OC,OC,OC,OC,439.5,642.4,90,FALSE,-171040,115.6,100,,,,,,,,,3575.7,3577.6,3573.3,3569.5,3572.7,3571.2,3574.6,3575.5,3574.3,3569.4,3573.9,3578.5,N/A,N/A,N/A,N/A,N/A,N/A,3575.7,3576.1,3576.4,3580.6,3578.5,3580.3,3573.1,3575.6,3573.7,3577.9,3579.6,3584.9,N/A,N/A,N/A,N/A,N/A,N/A,3593.4,3592,3588.2,3583.5,3581.9,3582.1,3590.8,3590.4,3589.5,3581.1,3581.4,3585.7,N/A,N/A,N/A,N/A,N/A,N/A,0,0,0,28,28,28,28,OC,OC,OC,OC,OC,OC,OC,OC,26,26,31,30,31,31,OC,OC,OC,OC,OC,OC,OC,OC,28,28,31,30,31,31,OC,OC,OC,OC,OC,OC,OC,OC,26,25,0,0,,,,,,
2021-10-13 14:09:05,GOOD,0d 1h 16m 26s,ACTIVE,514,0,128.9,-91.4,3588.7,3571.2,31,28,OC,OC,OC,OC,OC,OC,OC,OC,439.5,642.4,90,FALSE,-173777,115.6,100,,,,,,,,,3574.8,3576.3,3571.9,3566.9,3569.2,3567.9,3573.8,3575.4,3574,3567.4,3570.5,3575.4,N/A,N/A,N/A,N/A,N/A,N/A,3572,3571.9,3571.4,3574.5,3571.9,3573.3,3569.2,3570.9,3567.7,3570.7,3571.3,3577.3,N/A,N/A,N/A,N/A,N/A,N/A,3580.8,3578.8,3576.4,3575.3,3575.3,3576.5,3577.6,3578.9,3578.5,3573.4,3575.1,3579.7,N/A,N/A,N/A,N/A,N/A,N/A,0,0,0,28,28,28,28,OC,OC,OC,OC,OC,OC,OC,OC,26,26,31,31,31,31,OC,OC,OC,OC,OC,OC,OC,OC,28,28,31,31,31,31,OC,OC,OC,OC,OC,OC,OC,OC,26,25,0,0,,,,,,
2021-10-13 14:09:35,GOOD,0d 1h 16m 57s,ACTIVE,514,0,128.6,-91.1,3582,3563.4,31,28,OC,OC,OC,OC,OC,OC,OC,OC,439.5,642.4,90,FALSE,-176468,115.6,100,,,,,,,,,3565.6,3568,3566.7,3564.9,3572.1,3568.9,3565.2,3566.2,3567.8,3564.3,3572.5,3574.4,N/A,N/A,N/A,N/A,N/A,N/A,3568.3,3568.2,3567.5,3569.8,3567,3568.5,3565.4,3567.3,3563.9,3566.2,3566.6,3572.4,N/A,N/A,N/A,N/A,N/A,N/A,3578.4,3577.8,3577.1,3580.2,3582,3583,3575.6,3577.6,3579.7,3578,3583,3584.7,N/A,N/A,N/A,N/A,N/A,N/A,0,0,0,28,28,28,28,OC,OC,OC,OC,OC,OC,OC,OC,26,26,31,31,31,31,OC,OC,OC,OC,OC,OC,OC,OC,28,28,31,31,31,31,OC,OC,OC,OC,OC,OC,OC,OC,26,25,0,0,,,,,,
2021-10-13 14:10:05,GOOD,0d 1h 17m 27s,ACTIVE,514,0,128.4,-88.6,3573.2,3558.4,31,28,OC,OC,OC,OC,OC,OC,OC,OC,439.5,642.4,90,FALSE,-179250,115.6,100,,,,,,,,,3565.9,3567.8,3563.7,3559.6,3563,3561.2,3565.1,3566,3564.6,3559.3,3563.4,3567.8,N/A,N/A,N/A,N/A,N/A,N/A,3567.5,3566.8,3565.3,3565.8,3562.1,3563,3564.6,3566.1,3562,3563,3562.3,3568.2,N/A,N/A,N/A,N/A,N/A,N/A,3573.4,3571.4,3568.9,3567.7,3567.6,3568.7,3570.2,3571.9,3571.5,3566.7,3568.5,3572.7,N/A,N/A,N/A,N/A,N/A,N/A,0,0,0,28,28,28,28,OC,OC,OC,OC,OC,OC,OC,OC,26,26,31,31,31,31,OC,OC,OC,OC,OC,OC,OC,OC,28,28,31,31,31,31,OC,OC,OC,OC,OC,OC,OC,OC,26,25,0,0,,,,,,
2021-10-13 14:10:35,GOOD,0d 1h 17m 57s,ACTIVE,514,0,128.3,-89.2,3572.6,3557.3,31,28,OC,OC,OC,OC,OC,OC,OC,OC,439.5,642.4,90,FALSE,-181920,115.6,100,,,,,,,,,3558.9,3561.4,3559.1,3556.7,3562.8,3560.1,3558.2,3559.7,3560.3,3556.4,3563.7,3566.1,N/A,N/A,N/A,N/A,N/A,N/A,3566.9,3566,3564.1,3563.8,3559.8,3560.4,3564,3564.9,3560.3,3560.6,3559.6,3565.2,N/A,N/A,N/A,N/A,N/A,N/A,3570.4,3568.7,3566.4,3565.2,3565.5,3566.7,3567.4,3568.3,3568,3563.6,3565.7,3569.8,N/A,N/A,N/A,N/A,N/A,N/A,0,0,0,28,28,28,28,OC,OC,OC,OC,OC,OC,OC,OC,26,26,31,31,31,31,OC,OC,OC,OC,OC,OC,OC,OC,28,28,31,31,31,31,OC,OC,OC,OC,OC,OC,OC,OC,26,25,0,0,,,,,,
2021-10-13 14:10:43,GOOD,0d 1h 18m 6s,ACTIVE,514,0,128.4,-89.5,3575,3559.3,31,28,OC,OC,OC,OC,OC,OC,OC,OC,439.5,642.4,90,FALSE,-182619,115.6,100,,,,,,,,,3559.7,3562.1,3561.6,3559.7,3567.9,3564.2,3559.4,3560.7,3563.5,3559.9,3569.4,3570.1,N/A,N/A,N/A,N/A,N/A,N/A,3562.7,3563.8,3564,3569,3567.3,3569.2,3560.3,3562.3,3560.5,3565.2,3567.3,3571.7,N/A,N/A,N/A,N/A,N/A,N/A,3570.1,3569.7,3568.7,3571.2,3573,3574.9,3567.4,3569,3570.9,3568.9,3573.6,3575.7,N/A,N/A,N/A,N/A,N/A,N/A,0,0,0,28,28,28,28,OC,OC,OC,OC,OC,OC,OC,OC,26,26,31,31,31,31,OC,OC,OC,OC,OC,OC,OC,OC,28,28,31,31,31,31,OC,OC,OC,OC,OC,OC,OC,OC,26,25,0,0,,,,,,